"","Condition","Subject","ICS","typUS","typCS","pdset","pdval","pd.rt","prerating","postrating","vm.resp","vm.rt","vm.correct","im.correct","im.rt"
"1","Exclusion","100","HM01","neg","neg","Attitude","pleasant",3739,-100,-100,"dont know",723,NA,"TRUE",4944
"2","Exclusion","100","HM05","pos","neutral","Memory","pleasant",2489,15,73,"pleasant",404,"TRUE","TRUE",9629
"3","Exclusion","100","HM06","neg","neg","Attitude","pleasant",1191,-100,-100,"dont know",1302,NA,"FALSE",2198
"4","Exclusion","100","HM16","pos","neutral","Memory","pleasant",6720,5,-14,"dont know",1594,NA,"FALSE",1775
"5","Exclusion","100","HM19","pos","pos","Attitude","unpleasant",2521,80,93,"dont know",956,NA,"TRUE",4372
"6","Exclusion","100","HM22","neg","neg","Attitude","pleasant",1150,-100,-100,"dont know",1714,NA,"TRUE",2837
"7","Exclusion","100","HM25","neg","neutral","Memory","unpleasant",4135,-11,-20,"unpleasant",1209,"TRUE","TRUE",5268
"8","Exclusion","100","HM28","pos","neutral","Memory","pleasant",2229,3,34,"pleasant",1025,"TRUE","TRUE",3368
"9","Exclusion","100","HM29","neg","neutral","Memory","unpleasant",3296,5,-23,"dont know",1198,NA,"FALSE",4139
"10","Exclusion","100","HM31","pos","neutral","Memory","pleasant",4874,12,14,"dont know",1780,NA,"TRUE",4936
"11","Exclusion","100","HM32","pos","neutral","Attitude","pleasant",5432,-14,-45,"dont know",1301,NA,"TRUE",5251
"12","Exclusion","100","HM37","neg","neg","Attitude","pleasant",2410,-100,-100,"unpleasant",3382,"TRUE","TRUE",8591
"13","Exclusion","100","HM39","neg","neutral","Attitude","pleasant",10551,5,-18,"unpleasant",1178,"TRUE","FALSE",8013
"14","Exclusion","100","HM43","neg","neg","Attitude","pleasant",4207,-100,-100,"unpleasant",1247,"TRUE","TRUE",7940
"15","Exclusion","100","HM45","neg","neg","Attitude","pleasant",2173,-100,-71,"dont know",636,NA,"FALSE",5955
"16","Exclusion","100","HM47","neg","neg","Memory","unpleasant",2145,-100,-100,"unpleasant",983,"TRUE","FALSE",3663
"17","Exclusion","100","HM48","pos","neutral","Memory","pleasant",12615,14,4,"dont know",1887,NA,"TRUE",7315
"18","Exclusion","100","HM50","pos","neutral","Memory","pleasant",1396,3,100,"pleasant",397,"TRUE","FALSE",6582
"19","Exclusion","100","HM51","neg","neutral","Attitude","unpleasant",3524,11,-52,"dont know",1144,NA,"FALSE",7836
"20","Exclusion","100","HM55","neg","neutral","Memory","unpleasant",390,1,-72,"unpleasant",894,"TRUE","TRUE",4839
"21","Exclusion","100","HM58","neg","neutral","Attitude","pleasant",1384,-14,-68,"unpleasant",2439,"TRUE","TRUE",7604
"22","Exclusion","100","HW05","neg","neutral","Memory","unpleasant",3284,6,39,"unpleasant",1766,"TRUE","FALSE",6318
"23","Exclusion","100","HW07","pos","pos","Attitude","unpleasant",2477,92,89,"dont know",629,NA,"FALSE",12128
"24","Exclusion","100","HW10","pos","neutral","Attitude","pleasant",4444,-10,-17,"dont know",1076,NA,"TRUE",5529
"25","Exclusion","100","HW11","pos","pos","Attitude","unpleasant",1551,72,31,"dont know",606,NA,"FALSE",8780
"26","Exclusion","100","HW12","neg","neutral","Memory","pleasant",2879,10,46,"unpleasant",1501,"TRUE","FALSE",7017
"27","Exclusion","100","HW15","pos","pos","Attitude","unpleasant",966,80,62,"dont know",1393,NA,"TRUE",10558
"28","Exclusion","100","HW21","pos","pos","Attitude","unpleasant",2672,71,51,"dont know",932,NA,"FALSE",6556
"29","Exclusion","100","HW22","pos","neutral","Attitude","unpleasant",6226,-6,12,"dont know",1802,NA,"TRUE",4536
"30","Exclusion","100","HW29","pos","pos","Attitude","unpleasant",1782,70,37,"dont know",506,NA,"FALSE",8595
"31","Exclusion","100","HW30","neg","neutral","Memory","unpleasant",1142,-12,-33,"unpleasant",1247,"TRUE","TRUE",11113
"32","Exclusion","100","HW34","neg","neutral","Memory","unpleasant",1075,-12,-46,"unpleasant",923,"TRUE","TRUE",5005
"33","Exclusion","100","HW36","pos","pos","Attitude","unpleasant",3521,100,87,"dont know",1036,NA,"TRUE",7239
"34","Exclusion","100","HW37","neg","neutral","Memory","unpleasant",2934,-12,-27,"dont know",1223,NA,"TRUE",6175
"35","Exclusion","100","HW38","neg","neutral","Attitude","unpleasant",2038,-14,-18,"dont know",5233,NA,"FALSE",5745
"36","Exclusion","100","HW39","pos","neutral","Memory","unpleasant",3431,12,-19,"dont know",1498,NA,"FALSE",7032
"37","Exclusion","100","HW45","pos","neutral","Attitude","unpleasant",2960,-14,-20,"dont know",938,NA,"TRUE",6589
"38","Exclusion","100","HW47","pos","neutral","Memory","pleasant",2164,5,6,"pleasant",1512,"TRUE","TRUE",8487
"39","Exclusion","100","HW59","neg","neg","Attitude","pleasant",2473,-100,-83,"dont know",860,NA,"TRUE",7589
"40","Exclusion","100","HW60","pos","pos","Attitude","unpleasant",9482,73,88,"dont know",1571,NA,"FALSE",7036
"41","Exclusion","105","HM01","pos","neutral","Memory","unpleasant",9020,10,4,"dont know",17176,NA,"TRUE",22077
"42","Exclusion","105","HM02","neg","neutral","Attitude","unpleasant",6210,-8,-4,"unpleasant",7886,"TRUE","TRUE",11566
"43","Exclusion","105","HM03","neg","neutral","Attitude","unpleasant",4130,0,2,"dont know",7476,NA,"FALSE",6498
"44","Exclusion","105","HM06","neg","neg","Attitude","pleasant",3138,-38,-29,"dont know",10291,NA,"TRUE",8387
"45","Exclusion","105","HM13","neg","neutral","Memory","unpleasant",1722,-8,-9,"unpleasant",1536,"TRUE","TRUE",10472
"46","Exclusion","105","HM14","pos","neutral","Memory","unpleasant",8380,0,0,"dont know",9463,NA,"FALSE",10858
"47","Exclusion","105","HM15","pos","neutral","Attitude","unpleasant",4197,4,6,"unpleasant",2716,"FALSE","TRUE",10529
"48","Exclusion","105","HM16","neg","neutral","Attitude","unpleasant",7908,0,4,"dont know",9156,NA,"FALSE",3471
"49","Exclusion","105","HM18","neg","neutral","Attitude","unpleasant",3796,0,8,"unpleasant",4363,"TRUE","FALSE",20786
"50","Exclusion","105","HM20","pos","neutral","Memory","unpleasant",5924,5,4,"pleasant",6983,"TRUE","TRUE",2360
"51","Exclusion","105","HM24","neg","neutral","Memory","unpleasant",7168,0,4,"dont know",6761,NA,"FALSE",11613
"52","Exclusion","105","HM33","pos","neutral","Attitude","pleasant",34209,0,0,"pleasant",7058,"TRUE","TRUE",8356
"53","Exclusion","105","HM34","neg","neutral","Attitude","unpleasant",12704,0,7,"dont know",5897,NA,"TRUE",9163
"54","Exclusion","105","HM35","neg","neg","Attitude","pleasant",8790,-35,-15,"unpleasant",3362,"TRUE","TRUE",7263
"55","Exclusion","105","HM41","neg","neutral","Attitude","unpleasant",25909,0,5,"unpleasant",2679,"TRUE","FALSE",7535
"56","Exclusion","105","HM45","neg","neg","Attitude","pleasant",9055,-42,-31,"unpleasant",2462,"TRUE","FALSE",5554
"57","Exclusion","105","HM46","neg","neutral","Memory","unpleasant",4978,0,13,"unpleasant",1801,"TRUE","TRUE",11184
"58","Exclusion","105","HM47","neg","neutral","Attitude","unpleasant",5126,0,11,"dont know",2329,NA,"TRUE",11886
"59","Exclusion","105","HM49","neg","neg","Attitude","pleasant",2585,-47,-8,"unpleasant",3382,"TRUE","FALSE",14289
"60","Exclusion","105","HM50","neg","neutral","Memory","unpleasant",2379,0,0,"unpleasant",1265,"TRUE","TRUE",14146
"61","Exclusion","105","HW01","pos","pos","Attitude","unpleasant",5372,100,53,"dont know",2447,NA,"FALSE",10380
"62","Exclusion","105","HW02","pos","pos","Attitude","unpleasant",2398,93,53,"pleasant",5238,"TRUE","TRUE",10480
"63","Exclusion","105","HW03","pos","pos","Attitude","unpleasant",2773,100,53,"pleasant",7051,"TRUE","FALSE",9553
"64","Exclusion","105","HW06","pos","pos","Attitude","unpleasant",1411,100,68,"pleasant",1969,"TRUE","TRUE",7526
"65","Exclusion","105","HW08","neg","neg","Attitude","pleasant",5980,-33,-19,"dont know",9246,NA,"FALSE",15940
"66","Exclusion","105","HW09","pos","neutral","Memory","pleasant",8050,0,7,"pleasant",2851,"TRUE","FALSE",8056
"67","Exclusion","105","HW10","pos","neutral","Memory","pleasant",14713,-5,3,"pleasant",7812,"TRUE","FALSE",9876
"68","Exclusion","105","HW11","pos","pos","Attitude","unpleasant",3694,100,53,"pleasant",1219,"TRUE","FALSE",9771
"69","Exclusion","105","HW13","pos","pos","Attitude","unpleasant",3271,93,53,"dont know",2795,NA,"TRUE",17808
"70","Exclusion","105","HW16","pos","neutral","Memory","pleasant",2441,0,15,"pleasant",1213,"TRUE","FALSE",4146
"71","Exclusion","105","HW20","pos","neutral","Attitude","unpleasant",14833,5,6,"pleasant",2039,"TRUE","FALSE",2874
"72","Exclusion","105","HW29","pos","pos","Attitude","unpleasant",2358,100,36,"dont know",10202,NA,"FALSE",15714
"73","Exclusion","105","HW34","pos","pos","Attitude","unpleasant",1966,100,53,"pleasant",4298,"TRUE","FALSE",11947
"74","Exclusion","105","HW35","neg","neg","Attitude","pleasant",2748,-84,-58,"unpleasant",6720,"TRUE","TRUE",4689
"75","Exclusion","105","HW42","pos","neutral","Memory","pleasant",9880,7,13,"dont know",4095,NA,"TRUE",10406
"76","Exclusion","105","HW43","neg","neutral","Attitude","unpleasant",11883,-5,-10,"unpleasant",3714,"TRUE","TRUE",11529
"77","Exclusion","105","HW47","pos","neutral","Memory","pleasant",6690,-7,5,"pleasant",5988,"TRUE","FALSE",3176
"78","Exclusion","105","HW50","neg","neg","Attitude","pleasant",3938,-33,-74,"unpleasant",3202,"TRUE","TRUE",4544
"79","Exclusion","105","HW56","pos","neutral","Memory","pleasant",4626,0,-8,"pleasant",2657,"TRUE","TRUE",3474
"80","Exclusion","105","HW59","neg","neg","Attitude","pleasant",3864,-75,-81,"unpleasant",3190,"TRUE","TRUE",10701
"81","Exclusion","106","HM01","pos","neutral","Memory","pleasant",1739,20,60,"pleasant",2474,"TRUE","FALSE",5253
"82","Exclusion","106","HM03","neg","neg","Attitude","pleasant",4911,-80,-70,"dont know",2149,NA,"FALSE",8319
"83","Exclusion","106","HM04","neg","neg","Attitude","pleasant",2081,-95,-95,"dont know",2873,NA,"TRUE",11580
"84","Exclusion","106","HM06","neg","neutral","Attitude","pleasant",6183,5,-30,"dont know",2001,NA,"TRUE",16681
"85","Exclusion","106","HM11","neg","neg","Attitude","pleasant",2844,-95,-95,"dont know",1845,NA,"TRUE",6633
"86","Exclusion","106","HM12","pos","pos","Attitude","unpleasant",2992,80,90,"dont know",1431,NA,"TRUE",6422
"87","Exclusion","106","HM15","neg","neutral","Memory","unpleasant",6425,10,-40,"unpleasant",2045,"TRUE","FALSE",10334
"88","Exclusion","106","HM18","neg","neutral","Memory","pleasant",5308,-15,-60,"unpleasant",2407,"TRUE","TRUE",7001
"89","Exclusion","106","HM22","neg","neg","Attitude","pleasant",2461,-95,-85,"dont know",1292,NA,"TRUE",10841
"90","Exclusion","106","HM23","pos","neutral","Attitude","pleasant",4128,-15,-40,"dont know",1993,NA,"FALSE",9566
"91","Exclusion","106","HM24","neg","neutral","Attitude","pleasant",2566,-20,-65,"dont know",3217,NA,"FALSE",6021
"92","Exclusion","106","HM25","pos","pos","Attitude","unpleasant",2675,80,75,"dont know",1476,NA,"FALSE",9730
"93","Exclusion","106","HM30","neg","neutral","Memory","unpleasant",3406,-15,-60,"dont know",1959,NA,"FALSE",12621
"94","Exclusion","106","HM33","pos","neutral","Attitude","pleasant",11565,-10,-35,"unpleasant",2804,"FALSE","FALSE",7908
"95","Exclusion","106","HM36","neg","neutral","Memory","unpleasant",4657,20,-10,"unpleasant",1931,"TRUE","FALSE",14148
"96","Exclusion","106","HM37","neg","neg","Attitude","pleasant",2499,-90,-90,"dont know",1401,NA,"FALSE",6273
"97","Exclusion","106","HM46","neg","neutral","Attitude","unpleasant",5905,-15,-20,"dont know",2458,NA,"FALSE",9500
"98","Exclusion","106","HM51","neg","neutral","Attitude","unpleasant",3388,15,15,"dont know",1825,NA,"FALSE",13628
"99","Exclusion","106","HM56","pos","pos","Attitude","unpleasant",3816,70,80,"dont know",1263,NA,"TRUE",18932
"100","Exclusion","106","HM57","pos","neutral","Memory","pleasant",4626,-10,20,"pleasant",1766,"TRUE","TRUE",18273
"101","Exclusion","106","HM59","pos","neutral","Memory","pleasant",2930,15,50,"pleasant",2126,"TRUE","FALSE",3092
"102","Exclusion","106","HM60","pos","neutral","Memory","pleasant",4454,-10,-30,"pleasant",1768,"TRUE","FALSE",7379
"103","Exclusion","106","HW01","pos","neutral","Attitude","unpleasant",9696,20,40,"dont know",2965,NA,"TRUE",14395
"104","Exclusion","106","HW03","pos","pos","Attitude","unpleasant",2340,70,60,"dont know",1353,NA,"TRUE",10697
"105","Exclusion","106","HW13","pos","neutral","Memory","pleasant",4183,15,65,"pleasant",1582,"TRUE","TRUE",14568
"106","Exclusion","106","HW14","pos","pos","Attitude","unpleasant",2837,70,70,"dont know",2108,NA,"FALSE",9662
"107","Exclusion","106","HW15","pos","neutral","Memory","pleasant",3826,15,65,"pleasant",1781,"TRUE","TRUE",2631
"108","Exclusion","106","HW21","neg","neg","Attitude","pleasant",3289,-85,-15,"dont know",1615,NA,"TRUE",8293
"109","Exclusion","106","HW29","pos","pos","Attitude","unpleasant",2513,80,70,"dont know",1597,NA,"TRUE",18038
"110","Exclusion","106","HW32","pos","pos","Attitude","unpleasant",3234,70,75,"dont know",2338,NA,"TRUE",7733
"111","Exclusion","106","HW34","pos","neutral","Memory","pleasant",3131,-15,50,"pleasant",2133,"TRUE","FALSE",12744
"112","Exclusion","106","HW35","neg","neg","Attitude","pleasant",5327,-80,-80,"dont know",1091,NA,"TRUE",10338
"113","Exclusion","106","HW37","pos","neutral","Memory","pleasant",5182,10,35,"dont know",2402,NA,"TRUE",7920
"114","Exclusion","106","HW38","pos","neutral","Memory","unpleasant",11588,-15,-40,"unpleasant",6187,"FALSE","TRUE",8321
"115","Exclusion","106","HW41","neg","neutral","Attitude","unpleasant",7220,20,65,"dont know",4917,NA,"TRUE",16708
"116","Exclusion","106","HW53","neg","neutral","Attitude","pleasant",8990,20,-30,"unpleasant",7240,"TRUE","FALSE",7644
"117","Exclusion","106","HW56","neg","neutral","Memory","unpleasant",1957,10,-20,"unpleasant",1851,"TRUE","TRUE",8130
"118","Exclusion","106","HW57","pos","pos","Attitude","unpleasant",2497,70,80,"dont know",1246,NA,"FALSE",14835
"119","Exclusion","106","HW58","neg","neutral","Attitude","unpleasant",8014,15,10,"unpleasant",2261,"TRUE","TRUE",3534
"120","Exclusion","106","HW59","neg","neg","Attitude","pleasant",1961,-95,-90,"dont know",1078,NA,"FALSE",7268
"121","Exclusion","107","HM04","neg","neg","Attitude","pleasant",1825,-100,-46,"dont know",1204,NA,"TRUE",6590
"122","Exclusion","107","HM05","pos","pos","Attitude","unpleasant",5814,80,46,"dont know",2458,NA,"FALSE",2358
"123","Exclusion","107","HM06","neg","neg","Attitude","pleasant",1917,-80,-80,"unpleasant",1428,"TRUE","FALSE",4402
"124","Exclusion","107","HM10","neg","neutral","Memory","unpleasant",2474,19,62,"unpleasant",779,"TRUE","FALSE",6468
"125","Exclusion","107","HM15","neg","neutral","Memory","unpleasant",3663,20,-70,"unpleasant",1236,"TRUE","TRUE",2079
"126","Exclusion","107","HM19","pos","pos","Attitude","unpleasant",4744,100,92,"dont know",2911,NA,"TRUE",6598
"127","Exclusion","107","HM22","neg","neg","Attitude","pleasant",3949,-80,-58,"unpleasant",805,"TRUE","FALSE",8296
"128","Exclusion","107","HM24","neg","neutral","Attitude","pleasant",2724,10,-50,"unpleasant",816,"TRUE","FALSE",6923
"129","Exclusion","107","HM29","pos","neutral","Memory","pleasant",4832,20,61,"pleasant",1150,"TRUE","FALSE",2769
"130","Exclusion","107","HM30","pos","neutral","Attitude","pleasant",2257,20,51,"pleasant",2080,"TRUE","FALSE",3974
"131","Exclusion","107","HM31","neg","neutral","Attitude","unpleasant",3483,10,66,"pleasant",918,"FALSE","TRUE",12420
"132","Exclusion","107","HM32","pos","neutral","Attitude","pleasant",3202,-16,64,"unpleasant",883,"FALSE","FALSE",3831
"133","Exclusion","107","HM35","neg","neutral","Attitude","pleasant",2654,-20,-51,"pleasant",1358,"FALSE","TRUE",4957
"134","Exclusion","107","HM37","neg","neg","Attitude","pleasant",1575,-100,-45,"unpleasant",1094,"TRUE","FALSE",7858
"135","Exclusion","107","HM40","pos","neutral","Memory","pleasant",3132,-20,-100,"pleasant",1430,"TRUE","FALSE",7587
"136","Exclusion","107","HM43","neg","neutral","Memory","unpleasant",3185,10,-35,"unpleasant",4678,"TRUE","FALSE",2124
"137","Exclusion","107","HM45","neg","neg","Attitude","pleasant",1965,-86,-100,"dont know",1734,NA,"FALSE",2258
"138","Exclusion","107","HM47","neg","neg","Attitude","pleasant",2288,-80,48,"pleasant",1289,"FALSE","TRUE",6009
"139","Exclusion","107","HM49","pos","neutral","Memory","pleasant",3338,8,55,"pleasant",1214,"TRUE","TRUE",2410
"140","Exclusion","107","HM50","pos","neutral","Memory","pleasant",3296,10,-33,"pleasant",1414,"TRUE","FALSE",2732
"141","Exclusion","107","HM53","pos","neutral","Attitude","unpleasant",3417,20,59,"pleasant",1377,"TRUE","FALSE",6791
"142","Exclusion","107","HM54","neg","neutral","Memory","unpleasant",4154,20,-80,"unpleasant",1514,"TRUE","TRUE",6991
"143","Exclusion","107","HM56","neg","neutral","Memory","unpleasant",895,11,-100,"unpleasant",1251,"TRUE","FALSE",2240
"144","Exclusion","107","HM59","pos","pos","Attitude","unpleasant",1800,84,76,"pleasant",1074,"TRUE","FALSE",7339
"145","Exclusion","107","HM60","neg","neutral","Memory","unpleasant",1605,12,72,"unpleasant",666,"TRUE","FALSE",5602
"146","Exclusion","107","HW03","pos","pos","Attitude","unpleasant",2725,83,55,"pleasant",1247,"TRUE","TRUE",3871
"147","Exclusion","107","HW06","pos","neutral","Attitude","unpleasant",3488,-8,-66,"unpleasant",1121,"FALSE","FALSE",8265
"148","Exclusion","107","HW14","neg","neutral","Memory","unpleasant",3889,-17,100,"pleasant",1297,"FALSE","TRUE",8788
"149","Exclusion","107","HW16","pos","pos","Attitude","unpleasant",1705,100,-58,"dont know",1653,NA,"TRUE",10368
"150","Exclusion","107","HW17","neg","neutral","Memory","unpleasant",2133,10,-100,"unpleasant",713,"TRUE","TRUE",2410
"151","Exclusion","107","HW18","pos","pos","Attitude","unpleasant",4387,80,-43,"dont know",1488,NA,"FALSE",8854
"152","Exclusion","107","HW19","pos","neutral","Memory","pleasant",1942,10,-82,"pleasant",830,"TRUE","FALSE",2382
"153","Exclusion","107","HW26","pos","neutral","Memory","pleasant",5606,10,61,"pleasant",1123,"TRUE","TRUE",1936
"154","Exclusion","107","HW29","pos","pos","Attitude","unpleasant",3923,80,66,"pleasant",677,"TRUE","FALSE",4581
"155","Exclusion","107","HW35","neg","neg","Attitude","pleasant",1377,-100,-100,"unpleasant",2316,"TRUE","FALSE",11373
"156","Exclusion","107","HW38","pos","neutral","Attitude","unpleasant",15714,-20,-56,"unpleasant",959,"FALSE","TRUE",3173
"157","Exclusion","107","HW46","neg","neutral","Memory","unpleasant",3058,11,100,"unpleasant",3822,"TRUE","TRUE",7473
"158","Exclusion","107","HW48","pos","neutral","Attitude","unpleasant",17023,10,-44,"unpleasant",2576,"FALSE","FALSE",7634
"159","Exclusion","107","HW59","neg","neg","Attitude","pleasant",4709,-100,-100,"unpleasant",1447,"TRUE","TRUE",4385
"160","Exclusion","107","HW60","pos","pos","Attitude","unpleasant",2466,80,51,"pleasant",815,"TRUE","FALSE",3547
"161","Exclusion","108","HM06","neg","neg","Attitude","pleasant",4418,-85,-51,"unpleasant",1073,"TRUE","TRUE",5203
"162","Exclusion","108","HM07","pos","neutral","Memory","pleasant",2961,-20,-33,"pleasant",2411,"TRUE","FALSE",11954
"163","Exclusion","108","HM15","neg","neutral","Attitude","pleasant",20465,18,37,"unpleasant",1506,"TRUE","FALSE",7922
"164","Exclusion","108","HM18","neg","neutral","Memory","unpleasant",23423,-12,52,"unpleasant",1839,"TRUE","TRUE",4654
"165","Exclusion","108","HM20","neg","neutral","Attitude","pleasant",8672,18,15,"unpleasant",1866,"TRUE","FALSE",4121
"166","Exclusion","108","HM26","neg","neutral","Memory","unpleasant",2084,7,34,"dont know",1317,NA,"TRUE",6823
"167","Exclusion","108","HM30","pos","neutral","Attitude","unpleasant",15934,18,20,"unpleasant",1168,"FALSE","FALSE",8879
"168","Exclusion","108","HM31","neg","neutral","Attitude","unpleasant",2455,12,51,"unpleasant",1782,"TRUE","TRUE",15351
"169","Exclusion","108","HM33","neg","neutral","Memory","unpleasant",2974,21,21,"unpleasant",1033,"TRUE","FALSE",9484
"170","Exclusion","108","HM34","pos","neutral","Attitude","unpleasant",4833,-10,10,"dont know",5338,NA,"TRUE",17857
"171","Exclusion","108","HM35","neg","neutral","Memory","unpleasant",18965,-20,-6,"unpleasant",809,"TRUE","FALSE",2712
"172","Exclusion","108","HM37","neg","neg","Attitude","pleasant",5245,-68,-56,"dont know",1094,NA,"TRUE",4269
"173","Exclusion","108","HM38","pos","neutral","Attitude","unpleasant",492,-8,7,"dont know",1287,NA,"FALSE",7679
"174","Exclusion","108","HM41","pos","neutral","Attitude","unpleasant",7929,16,45,"dont know",1748,NA,"FALSE",9896
"175","Exclusion","108","HM43","neg","neg","Attitude","pleasant",7438,-68,-75,"dont know",805,NA,"FALSE",7576
"176","Exclusion","108","HM49","neg","neg","Attitude","pleasant",2077,-71,-38,"unpleasant",1905,"TRUE","FALSE",8785
"177","Exclusion","108","HM54","pos","neutral","Attitude","unpleasant",46666,21,25,"pleasant",1509,"TRUE","TRUE",6022
"178","Exclusion","108","HW06","pos","pos","Attitude","unpleasant",1994,93,100,"dont know",629,NA,"FALSE",9866
"179","Exclusion","108","HW08","neg","neutral","Memory","unpleasant",1556,-4,-34,"unpleasant",919,"TRUE","FALSE",9391
"180","Exclusion","108","HW09","neg","neg","Attitude","pleasant",5671,-66,-74,"dont know",1649,NA,"FALSE",7240
"181","Exclusion","108","HW10","pos","neutral","Memory","pleasant",6510,17,27,"dont know",6682,NA,"FALSE",9787
"182","Exclusion","108","HW11","pos","pos","Attitude","unpleasant",6371,84,84,"dont know",457,NA,"FALSE",7375
"183","Exclusion","108","HW19","neg","neg","Attitude","pleasant",6886,-78,-67,"dont know",746,NA,"TRUE",11638
"184","Exclusion","108","HW23","pos","pos","Attitude","unpleasant",4759,84,80,"dont know",4707,NA,"FALSE",9001
"185","Exclusion","108","HW29","pos","pos","Attitude","unpleasant",6867,100,66,"dont know",487,NA,"FALSE",8338
"186","Exclusion","108","HW30","pos","neutral","Attitude","pleasant",15629,14,-8,"dont know",1094,NA,"FALSE",7989
"187","Exclusion","108","HW31","pos","pos","Attitude","unpleasant",5310,87,72,"dont know",538,NA,"FALSE",20301
"188","Exclusion","108","HW33","pos","neutral","Memory","unpleasant",3895,24,-27,"unpleasant",1248,"FALSE","TRUE",15301
"189","Exclusion","108","HW36","pos","pos","Attitude","unpleasant",1369,100,85,"dont know",426,NA,"TRUE",5858
"190","Exclusion","108","HW38","neg","neutral","Attitude","unpleasant",3887,-16,83,"dont know",1197,NA,"TRUE",14381
"191","Exclusion","108","HW40","pos","pos","Attitude","unpleasant",1947,100,66,"dont know",636,NA,"FALSE",5820
"192","Exclusion","108","HW43","neg","neutral","Attitude","pleasant",8327,-21,-17,"unpleasant",289,"TRUE","FALSE",15131
"193","Exclusion","108","HW47","neg","neutral","Memory","unpleasant",4741,-9,-18,"unpleasant",714,"TRUE","FALSE",11172
"194","Exclusion","108","HW50","neg","neg","Attitude","pleasant",2869,-100,-56,"unpleasant",1146,"TRUE","TRUE",3086
"195","Exclusion","108","HW51","neg","neutral","Memory","unpleasant",3784,3,20,"unpleasant",3791,"TRUE","TRUE",7431
"196","Exclusion","108","HW52","pos","neutral","Memory","unpleasant",3353,-2,39,"unpleasant",831,"FALSE","FALSE",12225
"197","Exclusion","108","HW54","pos","pos","Attitude","unpleasant",2721,88,80,"dont know",790,NA,"TRUE",7760
"198","Exclusion","108","HW56","pos","neutral","Memory","pleasant",5890,-22,-36,"unpleasant",780,"FALSE","TRUE",8592
"199","Exclusion","108","HW58","pos","neutral","Memory","pleasant",1227,22,53,"pleasant",1282,"TRUE","TRUE",7181
"200","Exclusion","108","HW59","neg","neg","Attitude","pleasant",2564,-78,-68,"dont know",987,NA,"FALSE",10944
"201","Exclusion","110","HM01","pos","neutral","Attitude","unpleasant",6211,-6,3,"unpleasant",3725,"FALSE","TRUE",4624
"202","Exclusion","110","HM03","pos","neutral","Memory","pleasant",1217,6,19,"pleasant",850,"TRUE","FALSE",4833
"203","Exclusion","110","HM04","neg","neg","Attitude","pleasant",1714,-36,-25,"dont know",1339,NA,"FALSE",2611
"204","Exclusion","110","HM05","pos","pos","Attitude","unpleasant",3287,25,24,"dont know",1173,NA,"FALSE",4424
"205","Exclusion","110","HM07","neg","neutral","Memory","unpleasant",1467,-5,-9,"unpleasant",1271,"TRUE","TRUE",2208
"206","Exclusion","110","HM09","pos","neutral","Memory","pleasant",814,0,11,"pleasant",1499,"TRUE","TRUE",3009
"207","Exclusion","110","HM12","neg","neutral","Memory","unpleasant",1632,6,11,"dont know",1427,NA,"TRUE",4432
"208","Exclusion","110","HM13","pos","neutral","Memory","pleasant",4093,0,12,"pleasant",1667,"TRUE","FALSE",1687
"209","Exclusion","110","HM22","neg","neg","Attitude","pleasant",2149,-28,-28,"unpleasant",1156,"TRUE","FALSE",2519
"210","Exclusion","110","HM26","neg","neutral","Memory","unpleasant",2155,-6,-13,"unpleasant",1597,"TRUE","TRUE",5817
"211","Exclusion","110","HM30","neg","neutral","Memory","unpleasant",1793,5,15,"dont know",1543,NA,"TRUE",3376
"212","Exclusion","110","HM34","pos","neutral","Memory","pleasant",4507,-5,-6,"dont know",2149,NA,"FALSE",10350
"213","Exclusion","110","HM39","pos","neutral","Memory","pleasant",1763,-5,22,"pleasant",1194,"TRUE","TRUE",8804
"214","Exclusion","110","HM42","pos","pos","Attitude","unpleasant",2684,25,18,"dont know",808,NA,"FALSE",5245
"215","Exclusion","110","HM43","neg","neg","Attitude","pleasant",3807,-47,-26,"dont know",2135,NA,"TRUE",2926
"216","Exclusion","110","HM45","neg","neg","Attitude","pleasant",3346,-32,-32,"unpleasant",1630,"TRUE","TRUE",3674
"217","Exclusion","110","HM49","neg","neg","Attitude","pleasant",2558,-58,-24,"dont know",1243,NA,"TRUE",3374
"218","Exclusion","110","HM51","pos","pos","Attitude","unpleasant",4796,25,9,"dont know",1825,NA,"FALSE",3295
"219","Exclusion","110","HM53","neg","neg","Attitude","pleasant",7708,-26,-15,"dont know",1198,NA,"TRUE",5879
"220","Exclusion","110","HM59","pos","pos","Attitude","unpleasant",1568,30,16,"dont know",1714,NA,"TRUE",4571
"221","Exclusion","110","HM60","neg","neutral","Memory","unpleasant",1779,-5,-8,"unpleasant",1071,"TRUE","TRUE",3150
"222","Exclusion","110","HW03","neg","neutral","Memory","unpleasant",1480,4,17,"unpleasant",1495,"TRUE","FALSE",2237
"223","Exclusion","110","HW08","pos","neutral","Memory","pleasant",2379,4,-8,"dont know",2019,NA,"FALSE",8443
"224","Exclusion","110","HW11","neg","neutral","Memory","unpleasant",4041,3,7,"unpleasant",1537,"TRUE","FALSE",11556
"225","Exclusion","110","HW14","neg","neutral","Memory","pleasant",1773,4,15,"dont know",1808,NA,"TRUE",2318
"226","Exclusion","110","HW18","neg","neutral","Memory","unpleasant",1516,-6,-8,"unpleasant",1075,"TRUE","TRUE",7844
"227","Exclusion","110","HW22","neg","neutral","Memory","unpleasant",1290,5,11,"unpleasant",1091,"TRUE","TRUE",1719
"228","Exclusion","110","HW24","pos","neutral","Memory","pleasant",2096,-6,19,"pleasant",1178,"TRUE","FALSE",2578
"229","Exclusion","110","HW25","pos","neutral","Attitude","unpleasant",1691,-3,20,"dont know",1351,NA,"FALSE",9707
"230","Exclusion","110","HW30","neg","neg","Attitude","pleasant",8581,-29,-5,"dont know",830,NA,"TRUE",6432
"231","Exclusion","110","HW32","pos","pos","Attitude","pleasant",1479,33,29,"pleasant",1051,"TRUE","TRUE",5768
"232","Exclusion","110","HW35","neg","neg","Attitude","pleasant",2675,-29,-14,"unpleasant",1064,"TRUE","TRUE",2768
"233","Exclusion","110","HW41","pos","pos","Attitude","unpleasant",4549,28,26,"pleasant",1998,"TRUE","FALSE",4250
"234","Exclusion","110","HW44","pos","neutral","Memory","pleasant",3652,0,11,"dont know",1173,NA,"TRUE",7116
"235","Exclusion","110","HW47","pos","neutral","Memory","pleasant",2530,-2,-5,"pleasant",1286,"TRUE","FALSE",4136
"236","Exclusion","110","HW51","neg","neutral","Memory","unpleasant",2351,-2,-15,"unpleasant",2202,"TRUE","TRUE",3726
"237","Exclusion","110","HW54","pos","pos","Attitude","unpleasant",3726,25,11,"pleasant",1535,"TRUE","FALSE",4623
"238","Exclusion","110","HW58","pos","neutral","Memory","unpleasant",5226,-5,-4,"dont know",1629,NA,"FALSE",5237
"239","Exclusion","110","HW59","neg","neutral","Memory","unpleasant",2442,-5,-10,"unpleasant",1171,"TRUE","TRUE",2723
"240","Exclusion","110","HW60","pos","pos","Memory","unpleasant",1103,24,19,"unpleasant",3188,"FALSE","TRUE",652
"241","Exclusion","111","HM02","neg","neutral","Attitude","pleasant",10775,10,10,"unpleasant",2764,"TRUE","FALSE",9069
"242","Exclusion","111","HM03","pos","neutral","Memory","pleasant",6224,-10,20,"pleasant",1738,"TRUE","FALSE",4858
"243","Exclusion","111","HM06","pos","neutral","Attitude","pleasant",7348,-10,-15,"dont know",5450,NA,"FALSE",8947
"244","Exclusion","111","HM08","neg","neutral","Attitude","unpleasant",11257,10,10,"unpleasant",3211,"TRUE","FALSE",16086
"245","Exclusion","111","HM10","neg","neutral","Memory","unpleasant",3381,-10,-10,"unpleasant",1532,"TRUE","FALSE",10984
"246","Exclusion","111","HM15","neg","neutral","Attitude","unpleasant",8801,-10,30,"dont know",3379,NA,"FALSE",6496
"247","Exclusion","111","HM16","neg","neutral","Memory","pleasant",2367,10,10,"dont know",7793,NA,"FALSE",11423
"248","Exclusion","111","HM18","neg","neutral","Memory","unpleasant",5073,10,20,"unpleasant",2399,"TRUE","FALSE",11715
"249","Exclusion","111","HM19","pos","pos","Attitude","unpleasant",4023,60,40,"dont know",1939,NA,"FALSE",4289
"250","Exclusion","111","HM20","neg","neutral","Attitude","unpleasant",15133,-10,10,"unpleasant",4170,"TRUE","TRUE",12228
"251","Exclusion","111","HM22","neg","neg","Attitude","pleasant",3419,-40,-40,"unpleasant",1178,"TRUE","FALSE",13434
"252","Exclusion","111","HM23","neg","neutral","Attitude","pleasant",20365,-10,20,"unpleasant",2205,"TRUE","FALSE",7144
"253","Exclusion","111","HM24","pos","neutral","Attitude","unpleasant",14426,-5,10,"pleasant",3853,"TRUE","FALSE",9597
"254","Exclusion","111","HM32","neg","neutral","Attitude","unpleasant",7022,-10,30,"unpleasant",5866,"TRUE","TRUE",17930
"255","Exclusion","111","HM33","pos","neutral","Attitude","unpleasant",11412,10,20,"pleasant",4798,"TRUE","FALSE",13854
"256","Exclusion","111","HM34","neg","neg","Attitude","pleasant",2556,-40,-10,"unpleasant",2187,"TRUE","TRUE",4022
"257","Exclusion","111","HM35","neg","neg","Attitude","pleasant",4056,-40,-20,"unpleasant",1316,"TRUE","TRUE",5285
"258","Exclusion","111","HM37","neg","neg","Attitude","pleasant",5552,-40,-30,"unpleasant",1386,"TRUE","TRUE",2627
"259","Exclusion","111","HM38","pos","neutral","Attitude","pleasant",8154,10,15,"pleasant",4590,"TRUE","FALSE",8329
"260","Exclusion","111","HM40","pos","neutral","Attitude","unpleasant",9169,10,30,"pleasant",3128,"TRUE","TRUE",9143
"261","Exclusion","111","HM43","neg","neg","Attitude","pleasant",3994,-40,-40,"unpleasant",2405,"TRUE","FALSE",5422
"262","Exclusion","111","HM45","neg","neg","Attitude","pleasant",12400,-30,-30,"unpleasant",1329,"TRUE","FALSE",4633
"263","Exclusion","111","HM52","neg","neg","Attitude","pleasant",17282,-40,-20,"unpleasant",2048,"TRUE","FALSE",6331
"264","Exclusion","111","HW09","pos","neutral","Memory","unpleasant",3881,10,-10,"pleasant",7923,"TRUE","FALSE",21464
"265","Exclusion","111","HW13","pos","neutral","Memory","pleasant",2517,10,50,"pleasant",1316,"TRUE","TRUE",2902
"266","Exclusion","111","HW15","pos","pos","Attitude","unpleasant",7711,60,50,"dont know",1776,NA,"FALSE",5888
"267","Exclusion","111","HW19","neg","neutral","Memory","unpleasant",4040,10,10,"pleasant",1750,"FALSE","FALSE",8375
"268","Exclusion","111","HW23","pos","pos","Attitude","unpleasant",8316,75,45,"pleasant",1564,"TRUE","FALSE",5626
"269","Exclusion","111","HW30","pos","neutral","Attitude","unpleasant",5822,10,10,"unpleasant",4632,"FALSE","TRUE",7087
"270","Exclusion","111","HW31","pos","pos","Attitude","unpleasant",5293,65,40,"pleasant",7954,"TRUE","FALSE",10426
"271","Exclusion","111","HW34","pos","pos","Attitude","unpleasant",2572,60,30,"pleasant",1953,"TRUE","FALSE",4157
"272","Exclusion","111","HW42","pos","neutral","Attitude","pleasant",2469,10,-10,"pleasant",2021,"TRUE","FALSE",12731
"273","Exclusion","111","HW43","neg","neutral","Memory","unpleasant",9421,-10,-10,"unpleasant",5483,"TRUE","TRUE",10898
"274","Exclusion","111","HW45","pos","neutral","Attitude","unpleasant",3579,10,40,"dont know",3914,NA,"FALSE",9306
"275","Exclusion","111","HW53","pos","pos","Attitude","unpleasant",3831,70,40,"pleasant",1927,"TRUE","FALSE",6570
"276","Exclusion","111","HW54","pos","pos","Attitude","unpleasant",2849,70,50,"pleasant",1361,"TRUE","TRUE",4854
"277","Exclusion","111","HW55","neg","neutral","Attitude","pleasant",5998,10,20,"unpleasant",2456,"TRUE","FALSE",5477
"278","Exclusion","111","HW56","pos","neutral","Memory","pleasant",6277,-10,30,"pleasant",1396,"TRUE","TRUE",2531
"279","Exclusion","111","HW59","neg","neg","Attitude","pleasant",1454,-40,-30,"unpleasant",2545,"TRUE","FALSE",4754
"280","Exclusion","111","HW60","pos","pos","Attitude","unpleasant",4849,60,50,"dont know",3407,NA,"TRUE",14339
"281","Exclusion","117","HM02","neg","neg","Attitude","pleasant",1118,-44,-46,"unpleasant",566,"TRUE","TRUE",3915
"282","Exclusion","117","HM03","pos","neutral","Memory","unpleasant",7190,-14,-27,"unpleasant",2500,"FALSE","FALSE",297
"283","Exclusion","117","HM05","pos","pos","Attitude","unpleasant",1933,61,60,"pleasant",680,"TRUE","FALSE",6005
"284","Exclusion","117","HM06","neg","neg","Attitude","pleasant",1670,-52,-47,"unpleasant",819,"TRUE","FALSE",2584
"285","Exclusion","117","HM08","neg","neutral","Memory","unpleasant",3368,10,-28,"unpleasant",2085,"TRUE","TRUE",8879
"286","Exclusion","117","HM10","neg","neg","Attitude","pleasant",1501,-44,-40,"unpleasant",527,"TRUE","FALSE",2009
"287","Exclusion","117","HM11","pos","neutral","Memory","pleasant",3623,-11,-18,"pleasant",1223,"TRUE","FALSE",8230
"288","Exclusion","117","HM15","pos","neutral","Memory","pleasant",2355,12,29,"pleasant",604,"TRUE","TRUE",10790
"289","Exclusion","117","HM16","pos","neutral","Memory","pleasant",1231,-11,43,"pleasant",1038,"TRUE","FALSE",7320
"290","Exclusion","117","HM21","pos","neutral","Attitude","pleasant",3048,-11,-20,"dont know",1173,NA,"TRUE",15217
"291","Exclusion","117","HM22","neg","neg","Attitude","pleasant",1917,-57,-59,"unpleasant",3578,"TRUE","TRUE",4509
"292","Exclusion","117","HM24","neg","neutral","Attitude","pleasant",2448,-8,-36,"unpleasant",2795,"TRUE","TRUE",7937
"293","Exclusion","117","HM25","neg","neutral","Attitude","pleasant",2220,11,9,"dont know",1437,NA,"FALSE",8447
"294","Exclusion","117","HM27","neg","neutral","Attitude","unpleasant",8451,12,17,"dont know",374,NA,"TRUE",2536
"295","Exclusion","117","HM28","pos","neutral","Attitude","unpleasant",13225,11,27,"pleasant",1528,"TRUE","TRUE",3625
"296","Exclusion","117","HM29","neg","neutral","Memory","unpleasant",3726,-15,-56,"unpleasant",570,"TRUE","FALSE",9977
"297","Exclusion","117","HM32","neg","neutral","Attitude","unpleasant",22063,9,-24,"unpleasant",4712,"TRUE","FALSE",6767
"298","Exclusion","117","HM37","neg","neg","Attitude","pleasant",1315,-55,-51,"unpleasant",605,"TRUE","TRUE",3117
"299","Exclusion","117","HM42","pos","pos","Attitude","unpleasant",1553,55,46,"dont know",6291,NA,"FALSE",4784
"300","Exclusion","117","HM45","neg","neg","Attitude","pleasant",2673,-55,-50,"unpleasant",752,"TRUE","FALSE",5182
"301","Exclusion","117","HM49","neg","neg","Attitude","pleasant",1848,-47,-41,"unpleasant",801,"TRUE","TRUE",2813
"302","Exclusion","117","HM54","pos","neutral","Memory","pleasant",1522,-14,49,"pleasant",862,"TRUE","TRUE",10362
"303","Exclusion","117","HM59","pos","pos","Attitude","unpleasant",2745,54,42,"dont know",587,NA,"FALSE",5114
"304","Exclusion","117","HW02","pos","pos","Attitude","unpleasant",3075,58,55,"pleasant",2515,"TRUE","TRUE",5453
"305","Exclusion","117","HW04","pos","pos","Attitude","unpleasant",1975,54,53,"pleasant",629,"TRUE","FALSE",8558
"306","Exclusion","117","HW08","neg","neutral","Memory","unpleasant",1680,-11,-32,"unpleasant",1572,"TRUE","TRUE",5531
"307","Exclusion","117","HW09","neg","neutral","Memory","unpleasant",1582,15,-38,"unpleasant",1102,"TRUE","FALSE",3966
"308","Exclusion","117","HW12","pos","neutral","Memory","pleasant",1108,14,74,"pleasant",558,"TRUE","FALSE",2041
"309","Exclusion","117","HW16","neg","neutral","Memory","unpleasant",830,13,-43,"unpleasant",635,"TRUE","TRUE",8311
"310","Exclusion","117","HW17","pos","neutral","Memory","pleasant",861,11,51,"pleasant",1130,"TRUE","FALSE",8861
"311","Exclusion","117","HW37","neg","neutral","Memory","unpleasant",1915,11,-45,"unpleasant",1070,"TRUE","FALSE",5561
"312","Exclusion","117","HW38","pos","neutral","Memory","pleasant",1542,11,59,"pleasant",990,"TRUE","TRUE",11987
"313","Exclusion","117","HW39","pos","neutral","Memory","pleasant",726,8,28,"pleasant",1247,"TRUE","TRUE",7414
"314","Exclusion","117","HW40","neg","neutral","Attitude","unpleasant",3216,13,25,"dont know",1810,NA,"FALSE",6420
"315","Exclusion","117","HW41","pos","pos","Attitude","unpleasant",2238,54,28,"dont know",320,NA,"FALSE",4384
"316","Exclusion","117","HW42","pos","neutral","Memory","pleasant",1322,-11,38,"pleasant",747,"TRUE","TRUE",6464
"317","Exclusion","117","HW53","pos","pos","Attitude","unpleasant",1930,57,55,"pleasant",3100,"TRUE","TRUE",5575
"318","Exclusion","117","HW58","neg","neutral","Attitude","pleasant",4235,-12,-17,"dont know",2843,NA,"TRUE",6800
"319","Exclusion","117","HW59","neg","neg","Attitude","pleasant",3845,-50,-44,"unpleasant",1417,"TRUE","TRUE",4833
"320","Exclusion","117","HW60","pos","pos","Attitude","unpleasant",5487,54,21,"dont know",1103,NA,"FALSE",2358
"321","Exclusion","118","HM02","neg","neutral","Attitude","unpleasant",10740,0,35,"pleasant",4103,"FALSE","TRUE",3994
"322","Exclusion","118","HM04","pos","neutral","Memory","pleasant",3218,-10,-20,"dont know",14930,NA,"FALSE",4844
"323","Exclusion","118","HM06","neg","neg","Attitude","pleasant",9732,-35,-35,"unpleasant",4126,"TRUE","TRUE",4613
"324","Exclusion","118","HM07","neg","neg","Attitude","pleasant",4314,-20,-10,"unpleasant",3929,"TRUE","FALSE",3847
"325","Exclusion","118","HM08","pos","neutral","Attitude","unpleasant",4436,15,50,"dont know",2751,NA,"FALSE",2552
"326","Exclusion","118","HM10","pos","neutral","Memory","pleasant",8245,10,20,"pleasant",3525,"TRUE","FALSE",9790
"327","Exclusion","118","HM11","neg","neg","Memory","pleasant",4174,-20,-20,"dont know",2262,NA,"FALSE",5688
"328","Exclusion","118","HM13","neg","neutral","Memory","unpleasant",2132,0,0,"unpleasant",1005,"TRUE","FALSE",2930
"329","Exclusion","118","HM14","pos","neutral","Attitude","unpleasant",4437,0,50,"dont know",3866,NA,"TRUE",5962
"330","Exclusion","118","HM18","pos","neutral","Attitude","unpleasant",5014,15,50,"pleasant",3823,"TRUE","FALSE",11258
"331","Exclusion","118","HM19","neg","neg","Attitude","pleasant",15106,-25,-10,"unpleasant",3886,"TRUE","FALSE",7171
"332","Exclusion","118","HM20","neg","neutral","Memory","unpleasant",4455,-10,40,"unpleasant",1586,"TRUE","TRUE",6542
"333","Exclusion","118","HM22","neg","neutral","Attitude","pleasant",8945,0,-15,"dont know",4239,NA,"FALSE",2913
"334","Exclusion","118","HM23","pos","neutral","Memory","pleasant",2625,0,-10,"unpleasant",2075,"FALSE","FALSE",6924
"335","Exclusion","118","HM27","pos","pos","Attitude","unpleasant",4430,100,81,"dont know",2679,NA,"TRUE",8691
"336","Exclusion","118","HM34","pos","neutral","Attitude","pleasant",6309,0,-5,"unpleasant",4202,"FALSE","FALSE",5071
"337","Exclusion","118","HM35","neg","neutral","Memory","unpleasant",3040,-10,0,"unpleasant",1596,"TRUE","TRUE",3814
"338","Exclusion","118","HM37","neg","neutral","Memory","unpleasant",4457,0,25,"unpleasant",1296,"TRUE","TRUE",8515
"339","Exclusion","118","HM43","neg","neutral","Memory","pleasant",3620,0,35,"dont know",2796,NA,"TRUE",2451
"340","Exclusion","118","HM45","neg","neutral","Memory","unpleasant",7074,-10,-10,"unpleasant",3472,"TRUE","FALSE",2084
"341","Exclusion","118","HM49","neg","neg","Attitude","pleasant",6285,-20,-10,"dont know",7000,NA,"TRUE",4316
"342","Exclusion","118","HM55","pos","neutral","Memory","unpleasant",5128,10,60,"pleasant",2363,"TRUE","FALSE",3238
"343","Exclusion","118","HM57","pos","neutral","Memory","pleasant",8724,10,35,"pleasant",2258,"TRUE","TRUE",2717
"344","Exclusion","118","HM60","neg","neutral","Memory","pleasant",10232,-10,35,"dont know",5128,NA,"TRUE",5951
"345","Exclusion","118","HW03","pos","pos","Attitude","unpleasant",4081,100,100,"pleasant",1460,"TRUE","TRUE",9419
"346","Exclusion","118","HW04","pos","pos","Attitude","unpleasant",2589,100,100,"dont know",2630,NA,"TRUE",3306
"347","Exclusion","118","HW05","pos","pos","Attitude","unpleasant",3363,100,50,"dont know",4818,NA,"FALSE",4486
"348","Exclusion","118","HW08","neg","neg","Attitude","unpleasant",7637,-20,5,"dont know",2807,NA,"TRUE",8072
"349","Exclusion","118","HW12","neg","neutral","Attitude","unpleasant",4429,0,45,"unpleasant",1136,"TRUE","FALSE",4039
"350","Exclusion","118","HW24","pos","neutral","Memory","pleasant",3157,0,30,"pleasant",1445,"TRUE","TRUE",3281
"351","Exclusion","118","HW27","neg","neutral","Attitude","unpleasant",7272,0,20,"unpleasant",2270,"TRUE","FALSE",2571
"352","Exclusion","118","HW29","pos","pos","Attitude","unpleasant",3014,100,90,"pleasant",3222,"TRUE","TRUE",11300
"353","Exclusion","118","HW32","pos","pos","Attitude","unpleasant",3062,100,100,"dont know",1731,NA,"FALSE",2965
"354","Exclusion","118","HW33","neg","neutral","Memory","unpleasant",2562,10,30,"unpleasant",925,"TRUE","TRUE",5100
"355","Exclusion","118","HW35","neg","neg","Attitude","pleasant",2834,-61,-35,"dont know",3040,NA,"TRUE",3440
"356","Exclusion","118","HW48","pos","pos","Attitude","unpleasant",4839,100,85,"dont know",5492,NA,"FALSE",2885
"357","Exclusion","118","HW51","pos","neutral","Memory","unpleasant",7980,0,40,"dont know",3772,NA,"TRUE",3630
"358","Exclusion","118","HW52","pos","neutral","Memory","pleasant",4843,-10,20,"dont know",4158,NA,"FALSE",11654
"359","Exclusion","118","HW59","neg","neg","Attitude","pleasant",13248,-20,-20,"unpleasant",2990,"TRUE","TRUE",4625
"360","Exclusion","118","HW60","pos","pos","Attitude","unpleasant",2526,100,85,"pleasant",2320,"TRUE","TRUE",7817
"361","Exclusion","119","HM02","neg","neutral","Memory","unpleasant",612,-11,-24,"unpleasant",806,"TRUE","TRUE",2018
"362","Exclusion","119","HM04","neg","neg","Memory","unpleasant",1076,-76,-46,"dont know",1552,NA,"FALSE",2126
"363","Exclusion","119","HM08","pos","neutral","Memory","pleasant",1259,-5,43,"pleasant",849,"TRUE","FALSE",9641
"364","Exclusion","119","HM09","pos","neutral","Memory","unpleasant",1800,-8,-22,"pleasant",1631,"TRUE","TRUE",21694
"365","Exclusion","119","HM11","neg","neg","Attitude","pleasant",2686,-99,-33,"dont know",1181,NA,"FALSE",5582
"366","Exclusion","119","HM13","pos","neutral","Memory","pleasant",355,7,25,"pleasant",4191,"TRUE","FALSE",7183
"367","Exclusion","119","HM16","neg","neutral","Memory","unpleasant",1877,-1,-35,"unpleasant",759,"TRUE","TRUE",1367
"368","Exclusion","119","HM20","neg","neutral","Memory","unpleasant",1673,13,-6,"dont know",5087,NA,"FALSE",4039
"369","Exclusion","119","HM21","neg","neutral","Memory","pleasant",1696,-1,14,"unpleasant",2068,"TRUE","FALSE",5144
"370","Exclusion","119","HM25","neg","neutral","Memory","unpleasant",1479,-13,-21,"unpleasant",2567,"TRUE","TRUE",4452
"371","Exclusion","119","HM26","neg","neutral","Memory","unpleasant",700,-13,-25,"unpleasant",1456,"TRUE","TRUE",5315
"372","Exclusion","119","HM29","pos","neutral","Memory","pleasant",3864,12,23,"pleasant",693,"TRUE","TRUE",3170
"373","Exclusion","119","HM34","pos","neutral","Memory","unpleasant",1091,1,-9,"unpleasant",1288,"FALSE","FALSE",6427
"374","Exclusion","119","HM37","neg","neg","Attitude","pleasant",3173,-80,-28,"unpleasant",2900,"TRUE","FALSE",2482
"375","Exclusion","119","HM39","neg","neutral","Memory","unpleasant",1620,15,19,"unpleasant",1240,"TRUE","TRUE",6413
"376","Exclusion","119","HM43","neg","neutral","Memory","unpleasant",1181,10,-24,"unpleasant",1082,"TRUE","FALSE",4974
"377","Exclusion","119","HM49","neg","neg","Attitude","pleasant",3304,-90,-27,"dont know",4232,NA,"FALSE",1910
"378","Exclusion","119","HM58","pos","neutral","Attitude","pleasant",2219,5,-12,"dont know",4941,NA,"FALSE",4743
"379","Exclusion","119","HM60","neg","neutral","Memory","unpleasant",7415,-12,-91,"unpleasant",552,"TRUE","FALSE",2731
"380","Exclusion","119","HW02","pos","neutral","Memory","pleasant",1245,4,67,"pleasant",1233,"TRUE","TRUE",10726
"381","Exclusion","119","HW03","pos","pos","Attitude","unpleasant",2337,94,56,"pleasant",1497,"TRUE","FALSE",3625
"382","Exclusion","119","HW09","pos","neutral","Memory","pleasant",921,9,22,"pleasant",853,"TRUE","FALSE",1484
"383","Exclusion","119","HW10","pos","neutral","Memory","pleasant",889,-14,29,"pleasant",974,"TRUE","FALSE",3697
"384","Exclusion","119","HW12","pos","pos","Attitude","unpleasant",3036,94,32,"dont know",626,NA,"FALSE",1953
"385","Exclusion","119","HW13","pos","pos","Memory","pleasant",2139,100,35,"dont know",2355,NA,"TRUE",13855
"386","Exclusion","119","HW16","neg","neg","Attitude","pleasant",1383,-67,-29,"unpleasant",1996,"TRUE","FALSE",3386
"387","Exclusion","119","HW17","pos","neutral","Memory","pleasant",927,-9,47,"pleasant",997,"TRUE","TRUE",1992
"388","Exclusion","119","HW21","pos","pos","Memory","pleasant",2260,100,33,"dont know",854,NA,"FALSE",3636
"389","Exclusion","119","HW23","pos","pos","Attitude","pleasant",6864,84,48,"dont know",935,NA,"TRUE",2002
"390","Exclusion","119","HW25","pos","pos","Memory","pleasant",1269,100,42,"dont know",1788,NA,"TRUE",2681
"391","Exclusion","119","HW30","neg","neutral","Memory","unpleasant",1285,-11,-34,"unpleasant",1036,"TRUE","TRUE",3314
"392","Exclusion","119","HW33","neg","neg","Attitude","pleasant",11049,-86,-29,"dont know",6483,NA,"TRUE",7217
"393","Exclusion","119","HW41","pos","pos","Attitude","unpleasant",3143,94,35,"dont know",1234,NA,"FALSE",2065
"394","Exclusion","119","HW42","pos","neutral","Memory","pleasant",942,5,-25,"dont know",1409,NA,"TRUE",4170
"395","Exclusion","119","HW44","pos","pos","Memory","unpleasant",1079,84,18,"pleasant",1104,"TRUE","FALSE",4928
"396","Exclusion","119","HW45","neg","neutral","Memory","pleasant",725,8,42,"dont know",1360,NA,"FALSE",1576
"397","Exclusion","119","HW49","neg","neg","Memory","pleasant",2325,-71,23,"dont know",1544,NA,"FALSE",3113
"398","Exclusion","119","HW50","neg","neutral","Memory","unpleasant",1237,9,-41,"unpleasant",1137,"TRUE","TRUE",5507
"399","Exclusion","119","HW51","pos","neutral","Memory","pleasant",3633,6,39,"pleasant",647,"TRUE","TRUE",9015
"400","Exclusion","119","HW52","neg","neg","Attitude","pleasant",3106,-75,-37,"dont know",694,NA,"TRUE",1402
"401","Exclusion","120","HM02","pos","neutral","Memory","pleasant",1654,-4,9,"pleasant",1818,"TRUE","FALSE",8618
"402","Exclusion","120","HM04","neg","neutral","Memory","pleasant",1301,-3,7,"pleasant",486,"FALSE","TRUE",2327
"403","Exclusion","120","HM06","neg","neg","Attitude","pleasant",5088,-12,-2,"pleasant",693,"FALSE","TRUE",1999
"404","Exclusion","120","HM07","pos","neutral","Memory","unpleasant",2145,-6,7,"unpleasant",545,"FALSE","TRUE",12304
"405","Exclusion","120","HM11","pos","neutral","Memory","pleasant",2138,-3,11,"pleasant",536,"TRUE","FALSE",530
"406","Exclusion","120","HM14","pos","neutral","Memory","pleasant",1225,0,7,"pleasant",534,"TRUE","FALSE",15739
"407","Exclusion","120","HM15","pos","neutral","Memory","pleasant",1725,6,7,"pleasant",887,"TRUE","FALSE",6134
"408","Exclusion","120","HM16","pos","neutral","Memory","pleasant",1600,-1,6,"pleasant",351,"TRUE","TRUE",4663
"409","Exclusion","120","HM18","pos","neutral","Memory","pleasant",1347,-5,4,"pleasant",855,"TRUE","FALSE",8166
"410","Exclusion","120","HM19","neg","neutral","Memory","pleasant",1264,5,9,"unpleasant",7848,"TRUE","TRUE",1929
"411","Exclusion","120","HM20","neg","neutral","Memory","unpleasant",2874,-4,8,"pleasant",586,"FALSE","FALSE",6489
"412","Exclusion","120","HM24","neg","neutral","Attitude","unpleasant",5450,1,9,"pleasant",649,"FALSE","FALSE",6265
"413","Exclusion","120","HM26","pos","neutral","Memory","unpleasant",1423,1,7,"unpleasant",741,"FALSE","FALSE",6215
"414","Exclusion","120","HM29","neg","neutral","Memory","pleasant",4589,3,6,"pleasant",314,"FALSE","TRUE",8196
"415","Exclusion","120","HM33","neg","neutral","Memory","pleasant",2632,4,4,"unpleasant",912,"TRUE","FALSE",5090
"416","Exclusion","120","HM35","pos","neutral","Memory","pleasant",2590,4,5,"pleasant",701,"TRUE","FALSE",6234
"417","Exclusion","120","HM37","neg","neutral","Memory","unpleasant",1401,-5,5,"unpleasant",1016,"TRUE","TRUE",7666
"418","Exclusion","120","HM43","neg","neutral","Memory","unpleasant",1122,0,4,"unpleasant",538,"TRUE","TRUE",1934
"419","Exclusion","120","HM47","pos","neutral","Memory","pleasant",2663,6,7,"pleasant",555,"TRUE","FALSE",11353
"420","Exclusion","120","HM49","neg","neg","Attitude","pleasant",3584,-13,-7,"unpleasant",1566,"TRUE","TRUE",4403
"421","Exclusion","120","HM53","pos","pos","Attitude","unpleasant",2310,51,31,"pleasant",997,"TRUE","TRUE",6753
"422","Exclusion","120","HM55","pos","neutral","Memory","pleasant",1085,0,8,"pleasant",548,"TRUE","TRUE",7129
"423","Exclusion","120","HW01","pos","pos","Attitude","unpleasant",3206,70,27,"unpleasant",691,"FALSE","FALSE",7204
"424","Exclusion","120","HW02","pos","pos","Attitude","unpleasant",2556,58,21,"unpleasant",1157,"FALSE","FALSE",7824
"425","Exclusion","120","HW05","pos","pos","Attitude","unpleasant",3095,75,22,"unpleasant",775,"FALSE","TRUE",5919
"426","Exclusion","120","HW08","neg","neg","Attitude","pleasant",2810,-8,-8,"dont know",361,NA,"FALSE",4704
"427","Exclusion","120","HW12","pos","pos","Attitude","unpleasant",2528,52,34,"unpleasant",1775,"FALSE","TRUE",6908
"428","Exclusion","120","HW15","pos","pos","Attitude","unpleasant",488,57,17,"pleasant",1438,"TRUE","FALSE",4740
"429","Exclusion","120","HW17","pos","neutral","Memory","pleasant",5141,0,17,"pleasant",1097,"TRUE","TRUE",2984
"430","Exclusion","120","HW23","pos","pos","Attitude","unpleasant",2636,64,20,"unpleasant",539,"FALSE","FALSE",6740
"431","Exclusion","120","HW24","neg","neutral","Memory","unpleasant",1022,5,7,"unpleasant",595,"TRUE","TRUE",8824
"432","Exclusion","120","HW30","neg","neutral","Memory","unpleasant",3763,-5,6,"unpleasant",799,"TRUE","FALSE",6502
"433","Exclusion","120","HW35","neg","neg","Attitude","pleasant",2182,-8,-4,"dont know",948,NA,"TRUE",5027
"434","Exclusion","120","HW42","neg","neutral","Attitude","pleasant",2879,3,5,"unpleasant",789,"TRUE","TRUE",2935
"435","Exclusion","120","HW47","neg","neg","Attitude","pleasant",2082,-10,-3,"dont know",1237,NA,"TRUE",2911
"436","Exclusion","120","HW50","neg","neg","Memory","unpleasant",9285,-32,-9,"unpleasant",1402,"TRUE","FALSE",1791
"437","Exclusion","120","HW51","neg","neutral","Attitude","unpleasant",545,-4,12,"unpleasant",2867,"TRUE","TRUE",4735
"438","Exclusion","120","HW52","neg","neg","Attitude","pleasant",2370,-15,-9,"dont know",684,NA,"FALSE",5837
"439","Exclusion","120","HW53","pos","pos","Attitude","unpleasant",7507,57,12,"pleasant",450,"TRUE","TRUE",5857
"440","Exclusion","120","HW59","neg","neg","Attitude","pleasant",3332,-37,-5,"dont know",791,NA,"FALSE",10580
"441","Exclusion","121","HM02","pos","neutral","Memory","pleasant",2200,-17,20,"pleasant",1473,"TRUE","TRUE",3788
"442","Exclusion","121","HM04","neg","neg","Attitude","pleasant",2144,-70,-63,"dont know",680,NA,"FALSE",6194
"443","Exclusion","121","HM05","pos","pos","Attitude","unpleasant",6336,70,56,"dont know",2821,NA,"FALSE",4547
"444","Exclusion","121","HM06","neg","neg","Attitude","pleasant",2205,-57,-28,"dont know",784,NA,"FALSE",3248
"445","Exclusion","121","HM07","neg","neutral","Memory","unpleasant",3367,-12,-60,"dont know",1832,NA,"TRUE",10267
"446","Exclusion","121","HM14","pos","neutral","Attitude","pleasant",3581,-25,-34,"dont know",2223,NA,"TRUE",4595
"447","Exclusion","121","HM15","neg","neutral","Memory","unpleasant",1674,-18,-62,"unpleasant",2315,"TRUE","TRUE",4461
"448","Exclusion","121","HM19","neg","neutral","Attitude","pleasant",5777,-14,-45,"dont know",1514,NA,"TRUE",3148
"449","Exclusion","121","HM21","neg","neg","Attitude","pleasant",2406,-58,36,"dont know",2660,NA,"FALSE",6327
"450","Exclusion","121","HM22","neg","neg","Attitude","pleasant",2692,-69,-32,"dont know",3299,NA,"TRUE",6453
"451","Exclusion","121","HM24","neg","neutral","Attitude","unpleasant",2663,-20,28,"dont know",1010,NA,"TRUE",6385
"452","Exclusion","121","HM27","neg","neutral","Memory","unpleasant",2769,20,26,"unpleasant",1740,"TRUE","FALSE",4010
"453","Exclusion","121","HM28","pos","pos","Attitude","pleasant",2926,72,-39,"dont know",1411,NA,"TRUE",3586
"454","Exclusion","121","HM30","neg","neutral","Attitude","pleasant",5931,12,-34,"dont know",1227,NA,"TRUE",6050
"455","Exclusion","121","HM39","pos","neutral","Memory","pleasant",2508,-22,38,"pleasant",1564,"TRUE","TRUE",3809
"456","Exclusion","121","HM41","neg","neutral","Memory","unpleasant",2475,24,-25,"unpleasant",811,"TRUE","FALSE",7547
"457","Exclusion","121","HM43","neg","neg","Attitude","pleasant",3511,-74,-59,"dont know",779,NA,"TRUE",3034
"458","Exclusion","121","HM46","pos","neutral","Attitude","pleasant",2378,-23,-63,"dont know",1441,NA,"TRUE",7626
"459","Exclusion","121","HM47","neg","neg","Attitude","pleasant",3764,-72,-70,"unpleasant",1928,"TRUE","FALSE",2210
"460","Exclusion","121","HM48","pos","neutral","Attitude","pleasant",4138,-21,-26,"dont know",6639,NA,"FALSE",5746
"461","Exclusion","121","HM49","neg","neutral","Memory","unpleasant",2452,22,-33,"unpleasant",1607,"TRUE","FALSE",5320
"462","Exclusion","121","HM57","neg","neutral","Memory","unpleasant",2517,24,-62,"unpleasant",1143,"TRUE","FALSE",9519
"463","Exclusion","121","HW01","pos","pos","Attitude","unpleasant",3104,72,33,"dont know",1279,NA,"TRUE",6051
"464","Exclusion","121","HW04","pos","pos","Attitude","unpleasant",5314,79,26,"dont know",1004,NA,"TRUE",7549
"465","Exclusion","121","HW07","pos","neutral","Attitude","unpleasant",5702,16,-19,"dont know",1066,NA,"TRUE",7138
"466","Exclusion","121","HW08","pos","neutral","Memory","pleasant",1709,0,30,"pleasant",1788,"TRUE","FALSE",2555
"467","Exclusion","121","HW11","neg","neutral","Memory","unpleasant",2781,25,-20,"unpleasant",946,"TRUE","FALSE",2230
"468","Exclusion","121","HW22","neg","neutral","Memory","unpleasant",2174,13,-35,"unpleasant",1119,"TRUE","FALSE",3448
"469","Exclusion","121","HW23","pos","pos","Attitude","unpleasant",4849,86,56,"dont know",1036,NA,"FALSE",2737
"470","Exclusion","121","HW32","pos","pos","Attitude","unpleasant",2743,80,63,"dont know",947,NA,"FALSE",1953
"471","Exclusion","121","HW35","neg","neg","Attitude","pleasant",3462,-68,-66,"dont know",1294,NA,"FALSE",8024
"472","Exclusion","121","HW37","pos","neutral","Memory","pleasant",2371,-23,27,"pleasant",1044,"TRUE","TRUE",2900
"473","Exclusion","121","HW43","pos","pos","Attitude","unpleasant",3039,68,-19,"dont know",1418,NA,"TRUE",3588
"474","Exclusion","121","HW45","pos","neutral","Memory","pleasant",2459,-25,-23,"pleasant",1145,"TRUE","TRUE",3404
"475","Exclusion","121","HW47","neg","neutral","Memory","unpleasant",3964,17,-15,"unpleasant",1385,"TRUE","TRUE",1310
"476","Exclusion","121","HW50","neg","neg","Attitude","pleasant",3136,-58,-29,"dont know",892,NA,"TRUE",4068
"477","Exclusion","121","HW53","pos","pos","Attitude","unpleasant",2202,74,62,"dont know",1169,NA,"FALSE",7681
"478","Exclusion","121","HW54","pos","neutral","Attitude","pleasant",22545,25,-32,"unpleasant",1497,"FALSE","TRUE",5903
"479","Exclusion","121","HW56","pos","neutral","Memory","pleasant",1284,-13,49,"pleasant",1151,"TRUE","TRUE",5327
"480","Exclusion","121","HW58","pos","neutral","Memory","pleasant",2216,18,30,"pleasant",1279,"TRUE","FALSE",5230
"481","Exclusion","123","HM01","neg","neutral","Memory","unpleasant",2040,-3,-10,"unpleasant",2697,"TRUE","FALSE",2997
"482","Exclusion","123","HM03","neg","neutral","Attitude","pleasant",1970,0,-3,"unpleasant",1420,"TRUE","FALSE",267
"483","Exclusion","123","HM04","neg","neg","Attitude","pleasant",3979,-17,-10,"dont know",3479,NA,"TRUE",4235
"484","Exclusion","123","HM06","neg","neg","Memory","unpleasant",2274,-36,-47,"unpleasant",3340,"TRUE","TRUE",16029
"485","Exclusion","123","HM07","neg","neg","Attitude","pleasant",7991,-20,-25,"unpleasant",1448,"TRUE","FALSE",5343
"486","Exclusion","123","HM11","pos","neutral","Attitude","unpleasant",7915,0,0,"pleasant",4443,"TRUE","TRUE",2632
"487","Exclusion","123","HM14","neg","neutral","Attitude","unpleasant",7361,0,0,"pleasant",1103,"FALSE","TRUE",7836
"488","Exclusion","123","HM17","pos","pos","Attitude","unpleasant",1523,39,50,"pleasant",5348,"TRUE","TRUE",14306
"489","Exclusion","123","HM18","pos","neutral","Memory","unpleasant",4575,-3,-15,"unpleasant",3851,"FALSE","TRUE",6940
"490","Exclusion","123","HM19","neg","neg","Attitude","pleasant",2425,-26,-7,"unpleasant",1553,"TRUE","TRUE",5292
"491","Exclusion","123","HM22","neg","neg","Attitude","pleasant",340,-17,-8,"unpleasant",2173,"TRUE","TRUE",6866
"492","Exclusion","123","HM24","pos","neutral","Attitude","unpleasant",7632,0,16,"pleasant",1297,"TRUE","TRUE",16473
"493","Exclusion","123","HM30","pos","neutral","Memory","pleasant",17133,0,-22,"unpleasant",2316,"FALSE","FALSE",8437
"494","Exclusion","123","HM33","neg","neutral","Attitude","pleasant",2367,0,0,"unpleasant",5506,"TRUE","TRUE",6603
"495","Exclusion","123","HM34","neg","neutral","Memory","pleasant",13907,0,14,"pleasant",3549,"FALSE","TRUE",10097
"496","Exclusion","123","HM38","pos","neutral","Attitude","unpleasant",3940,3,-9,"pleasant",2078,"TRUE","FALSE",23586
"497","Exclusion","123","HM47","neg","neutral","Memory","unpleasant",4040,0,-36,"dont know",8368,NA,"FALSE",10298
"498","Exclusion","123","HM49","neg","neg","Attitude","pleasant",4923,-24,-33,"unpleasant",1718,"TRUE","FALSE",8571
"499","Exclusion","123","HM54","neg","neutral","Memory","unpleasant",3283,3,-23,"pleasant",7716,"FALSE","FALSE",4549
"500","Exclusion","123","HM55","pos","neutral","Memory","unpleasant",4960,0,-20,"pleasant",1114,"TRUE","FALSE",7356
"501","Exclusion","123","HM58","neg","neutral","Memory","unpleasant",8595,-3,0,"dont know",3666,NA,"TRUE",11728
"502","Exclusion","123","HM60","neg","neutral","Memory","unpleasant",1694,-3,-61,"unpleasant",2250,"TRUE","FALSE",4742
"503","Exclusion","123","HW01","pos","pos","Attitude","unpleasant",8805,36,42,"pleasant",2988,"TRUE","TRUE",4032
"504","Exclusion","123","HW06","pos","pos","Attitude","pleasant",2180,51,42,"unpleasant",1319,"FALSE","FALSE",4288
"505","Exclusion","123","HW10","pos","neutral","Attitude","unpleasant",4717,0,12,"pleasant",2413,"TRUE","FALSE",6329
"506","Exclusion","123","HW15","pos","pos","Attitude","unpleasant",3106,50,41,"dont know",2091,NA,"FALSE",13248
"507","Exclusion","123","HW16","pos","neutral","Memory","pleasant",3059,0,47,"pleasant",868,"TRUE","FALSE",1947
"508","Exclusion","123","HW19","pos","pos","Attitude","unpleasant",2689,39,37,"unpleasant",1855,"FALSE","FALSE",5186
"509","Exclusion","123","HW23","pos","pos","Attitude","unpleasant",1577,39,31,"unpleasant",3776,"FALSE","FALSE",6490
"510","Exclusion","123","HW24","pos","neutral","Memory","pleasant",1939,0,-16,"pleasant",946,"TRUE","TRUE",12567
"511","Exclusion","123","HW30","neg","neutral","Memory","unpleasant",4103,0,-32,"pleasant",1110,"FALSE","TRUE",8032
"512","Exclusion","123","HW32","pos","pos","Attitude","unpleasant",4478,52,53,"pleasant",1820,"TRUE","TRUE",7474
"513","Exclusion","123","HW47","neg","neutral","Memory","pleasant",2770,-2,34,"pleasant",831,"FALSE","TRUE",9931
"514","Exclusion","123","HW50","neg","neutral","Memory","unpleasant",6505,1,-20,"pleasant",1196,"FALSE","TRUE",2528
"515","Exclusion","123","HW51","pos","neutral","Attitude","unpleasant",6716,2,-7,"pleasant",1132,"TRUE","TRUE",4901
"516","Exclusion","123","HW52","neg","neg","Attitude","pleasant",10589,-17,0,"dont know",4019,NA,"TRUE",11439
"517","Exclusion","123","HW53","pos","pos","Attitude","unpleasant",2790,37,34,"unpleasant",692,"FALSE","FALSE",3382
"518","Exclusion","123","HW56","pos","neutral","Memory","pleasant",1909,3,10,"dont know",2959,NA,"TRUE",3608
"519","Exclusion","123","HW58","pos","neutral","Memory","pleasant",5404,-1,26,"pleasant",2676,"TRUE","TRUE",11724
"520","Exclusion","123","HW59","neg","neg","Attitude","pleasant",6185,-24,-66,"unpleasant",2262,"TRUE","TRUE",15737
"521","Exclusion","125","HM01","neg","neutral","Memory","unpleasant",1909,1,-27,"unpleasant",1426,"TRUE","TRUE",2347
"522","Exclusion","125","HM02","neg","neutral","Memory","unpleasant",6412,0,-27,"unpleasant",1140,"TRUE","TRUE",5709
"523","Exclusion","125","HM03","neg","neutral","Memory","unpleasant",1571,0,-20,"unpleasant",739,"TRUE","FALSE",2841
"524","Exclusion","125","HM06","neg","neg","Attitude","pleasant",2340,-33,-38,"dont know",823,NA,"FALSE",3582
"525","Exclusion","125","HM10","neg","neg","Attitude","pleasant",5243,-59,-28,"dont know",872,NA,"FALSE",5693
"526","Exclusion","125","HM14","neg","neutral","Memory","unpleasant",1943,0,-32,"unpleasant",1468,"TRUE","FALSE",2809
"527","Exclusion","125","HM16","pos","neutral","Memory","unpleasant",2758,6,3,"dont know",1458,NA,"TRUE",6300
"528","Exclusion","125","HM17","pos","pos","Attitude","unpleasant",2034,53,47,"pleasant",1762,"TRUE","FALSE",2910
"529","Exclusion","125","HM20","neg","neutral","Memory","unpleasant",2561,0,-16,"unpleasant",1448,"TRUE","TRUE",4861
"530","Exclusion","125","HM21","neg","neutral","Attitude","unpleasant",1889,0,18,"dont know",2684,NA,"TRUE",9206
"531","Exclusion","125","HM22","neg","neg","Attitude","pleasant",2103,-50,-47,"unpleasant",1429,"TRUE","FALSE",4468
"532","Exclusion","125","HM26","neg","neutral","Attitude","pleasant",2815,0,16,"unpleasant",1534,"TRUE","FALSE",2427
"533","Exclusion","125","HM27","neg","neutral","Memory","unpleasant",427,4,14,"unpleasant",1876,"TRUE","FALSE",5856
"534","Exclusion","125","HM30","pos","neutral","Attitude","pleasant",2132,3,0,"dont know",2915,NA,"TRUE",8073
"535","Exclusion","125","HM31","pos","neutral","Memory","pleasant",2213,0,0,"pleasant",1432,"TRUE","FALSE",6585
"536","Exclusion","125","HM32","neg","neutral","Memory","unpleasant",3466,0,-9,"pleasant",2266,"FALSE","TRUE",9566
"537","Exclusion","125","HM36","pos","pos","Attitude","unpleasant",1651,89,72,"dont know",1021,NA,"TRUE",6911
"538","Exclusion","125","HM39","pos","neutral","Memory","pleasant",4815,0,17,"pleasant",1234,"TRUE","TRUE",11651
"539","Exclusion","125","HM41","pos","neutral","Memory","pleasant",3115,0,38,"pleasant",854,"TRUE","TRUE",7566
"540","Exclusion","125","HM42","pos","pos","Attitude","unpleasant",1680,36,35,"dont know",1994,NA,"FALSE",4888
"541","Exclusion","125","HM45","neg","neg","Attitude","pleasant",1907,-41,-24,"dont know",811,NA,"FALSE",3413
"542","Exclusion","125","HM48","neg","neutral","Attitude","unpleasant",2917,0,25,"dont know",1343,NA,"TRUE",3513
"543","Exclusion","125","HM55","pos","neutral","Memory","unpleasant",2601,0,16,"unpleasant",3352,"FALSE","TRUE",6211
"544","Exclusion","125","HM56","pos","pos","Attitude","unpleasant",2592,47,44,"dont know",729,NA,"FALSE",4914
"545","Exclusion","125","HM57","pos","neutral","Attitude","pleasant",3319,0,-10,"dont know",1283,NA,"FALSE",12598
"546","Exclusion","125","HW06","neg","neutral","Memory","unpleasant",3866,-6,38,"unpleasant",2146,"TRUE","FALSE",4703
"547","Exclusion","125","HW12","neg","neg","Attitude","pleasant",1711,-51,-46,"dont know",655,NA,"FALSE",6705
"548","Exclusion","125","HW14","neg","neutral","Memory","unpleasant",1550,1,-12,"unpleasant",1135,"TRUE","FALSE",6911
"549","Exclusion","125","HW16","pos","pos","Attitude","unpleasant",2020,38,61,"dont know",1183,NA,"FALSE",3740
"550","Exclusion","125","HW20","pos","neutral","Attitude","unpleasant",9034,1,-13,"dont know",1553,NA,"FALSE",5302
"551","Exclusion","125","HW23","pos","pos","Attitude","unpleasant",2205,37,33,"dont know",708,NA,"FALSE",2037
"552","Exclusion","125","HW24","pos","neutral","Memory","pleasant",3821,0,19,"pleasant",1243,"TRUE","FALSE",6435
"553","Exclusion","125","HW33","pos","neutral","Memory","pleasant",2365,1,-34,"pleasant",754,"TRUE","FALSE",4552
"554","Exclusion","125","HW35","neg","neg","Attitude","pleasant",4641,-33,-43,"dont know",907,NA,"FALSE",3431
"555","Exclusion","125","HW36","pos","pos","Attitude","unpleasant",2050,49,43,"dont know",846,NA,"TRUE",3716
"556","Exclusion","125","HW40","pos","pos","Attitude","unpleasant",3333,49,22,"dont know",636,NA,"TRUE",3448
"557","Exclusion","125","HW51","pos","neutral","Memory","pleasant",1876,-6,32,"pleasant",840,"TRUE","FALSE",7055
"558","Exclusion","125","HW52","neg","neg","Attitude","pleasant",2069,-35,-30,"dont know",801,NA,"FALSE",6987
"559","Exclusion","125","HW58","pos","neutral","Memory","pleasant",2480,0,0,"pleasant",1148,"TRUE","TRUE",1679
"560","Exclusion","125","HW59","neg","neg","Attitude","pleasant",2060,-34,-51,"dont know",701,NA,"TRUE",5139
"561","Exclusion","35","HM02","pos","neutral","Attitude","pleasant",2911,-10,-25,"dont know",5196,NA,"FALSE",10309
"562","Exclusion","35","HM04","neg","neg","Attitude","pleasant",2682,-80,-30,"unpleasant",1382,"TRUE","TRUE",1813
"563","Exclusion","35","HM06","neg","neg","Attitude","unpleasant",2720,-70,-80,"dont know",1129,NA,"TRUE",5845
"564","Exclusion","35","HM10","neg","neg","Attitude","pleasant",2433,-80,-95,"dont know",1210,NA,"TRUE",4796
"565","Exclusion","35","HM13","pos","neutral","Attitude","pleasant",4153,10,-30,"dont know",1367,NA,"FALSE",2692
"566","Exclusion","35","HM15","neg","neutral","Attitude","pleasant",2967,-10,-10,"dont know",2413,NA,"TRUE",3446
"567","Exclusion","35","HM16","pos","neutral","Attitude","unpleasant",3024,5,15,"dont know",2506,NA,"FALSE",8047
"568","Exclusion","35","HM19","pos","pos","Memory","pleasant",2868,70,10,"dont know",1474,NA,"TRUE",7120
"569","Exclusion","35","HM21","neg","neg","Attitude","pleasant",4296,-60,-5,"unpleasant",985,"TRUE","TRUE",2998
"570","Exclusion","35","HM23","pos","neutral","Attitude","pleasant",10331,10,-10,"dont know",1840,NA,"TRUE",22780
"571","Exclusion","35","HM30","neg","neutral","Memory","unpleasant",3609,10,-7,"dont know",1762,NA,"FALSE",5800
"572","Exclusion","35","HM39","neg","neg","Attitude","pleasant",5527,-70,-49,"dont know",2013,NA,"TRUE",1898
"573","Exclusion","35","HM42","pos","neutral","Attitude","pleasant",5959,5,-20,"dont know",2244,NA,"FALSE",11139
"574","Exclusion","35","HM43","neg","neg","Attitude","pleasant",3880,-90,-35,"dont know",886,NA,"TRUE",11310
"575","Exclusion","35","HM45","neg","neg","Attitude","pleasant",2374,-80,-10,"unpleasant",1089,"TRUE","TRUE",1569
"576","Exclusion","35","HM48","pos","neutral","Attitude","pleasant",2173,-10,-15,"dont know",1161,NA,"FALSE",6497
"577","Exclusion","35","HM50","pos","neutral","Memory","pleasant",10643,10,-25,"pleasant",1509,"TRUE","TRUE",5619
"578","Exclusion","35","HM51","neg","neutral","Attitude","pleasant",2337,-5,-10,"dont know",1147,NA,"FALSE",11399
"579","Exclusion","35","HM58","neg","neutral","Attitude","pleasant",6049,5,-5,"unpleasant",5586,"TRUE","FALSE",7876
"580","Exclusion","35","HM59","pos","neutral","Memory","pleasant",6033,10,-55,"pleasant",4300,"TRUE","FALSE",8155
"581","Exclusion","35","HW05","neg","neg","Attitude","pleasant",5226,-80,-55,"dont know",976,NA,"FALSE",5431
"582","Exclusion","35","HW06","neg","neutral","Attitude","pleasant",6727,-10,-30,"unpleasant",2455,"TRUE","FALSE",2075
"583","Exclusion","35","HW07","pos","pos","Memory","unpleasant",3434,45,-20,"dont know",1469,NA,"FALSE",4179
"584","Exclusion","35","HW13","pos","neutral","Memory","unpleasant",2330,-5,-45,"unpleasant",1809,"FALSE","FALSE",10520
"585","Exclusion","35","HW14","pos","pos","Attitude","unpleasant",7573,65,-25,"dont know",1734,NA,"FALSE",4609
"586","Exclusion","35","HW19","pos","pos","Attitude","unpleasant",3707,60,-15,"dont know",909,NA,"FALSE",13941
"587","Exclusion","35","HW20","pos","pos","Attitude","unpleasant",2692,80,10,"dont know",8514,NA,"FALSE",9344
"588","Exclusion","35","HW22","pos","pos","Attitude","unpleasant",4162,40,5,"dont know",1761,NA,"FALSE",14231
"589","Exclusion","35","HW26","pos","neutral","Attitude","unpleasant",4075,-10,5,"dont know",2854,NA,"FALSE",4860
"590","Exclusion","35","HW27","pos","neutral","Memory","unpleasant",1967,10,-70,"unpleasant",4182,"FALSE","TRUE",3184
"591","Exclusion","35","HW29","neg","neutral","Attitude","unpleasant",2315,10,20,"dont know",7826,NA,"FALSE",2599
"592","Exclusion","35","HW30","neg","neutral","Memory","unpleasant",3435,-10,-30,"unpleasant",2821,"TRUE","FALSE",3510
"593","Exclusion","35","HW32","neg","neutral","Memory","unpleasant",2316,10,-55,"unpleasant",1304,"TRUE","FALSE",2874
"594","Exclusion","35","HW35","pos","neutral","Memory","unpleasant",5565,-10,-15,"unpleasant",5597,"FALSE","TRUE",11564
"595","Exclusion","35","HW37","neg","neutral","Memory","unpleasant",1676,-10,-80,"unpleasant",1100,"TRUE","TRUE",2747
"596","Exclusion","35","HW47","pos","pos","Attitude","unpleasant",1691,65,10,"dont know",3372,NA,"TRUE",4392
"597","Exclusion","35","HW48","neg","neutral","Memory","unpleasant",12571,5,-25,"dont know",1685,NA,"FALSE",2970
"598","Exclusion","35","HW53","neg","neutral","Attitude","pleasant",12531,-10,20,"dont know",1736,NA,"TRUE",9434
"599","Exclusion","35","HW54","pos","pos","Attitude","unpleasant",4497,70,35,"pleasant",2981,"TRUE","FALSE",3840
"600","Exclusion","35","HW57","neg","neutral","Memory","unpleasant",3575,-10,-50,"unpleasant",7348,"TRUE","TRUE",2007
"601","Exclusion","37","HM04","neg","neg","Attitude","pleasant",11803,-60,-80,"unpleasant",1886,"TRUE","FALSE",18182
"602","Exclusion","37","HM07","neg","neg","Attitude","pleasant",2402,-42,-24,"unpleasant",1032,"TRUE","TRUE",10238
"603","Exclusion","37","HM10","neg","neg","Attitude","pleasant",3287,-86,-75,"unpleasant",1363,"TRUE","TRUE",6329
"604","Exclusion","37","HM11","pos","neutral","Memory","unpleasant",4817,-6,-30,"dont know",4141,NA,"TRUE",24756
"605","Exclusion","37","HM12","pos","neutral","Memory","pleasant",2566,-5,62,"pleasant",1388,"TRUE","TRUE",9803
"606","Exclusion","37","HM17","pos","neutral","Attitude","unpleasant",10687,-4,25,"pleasant",3712,"TRUE","TRUE",14258
"607","Exclusion","37","HM26","neg","neg","Attitude","pleasant",2225,-50,-75,"unpleasant",1413,"TRUE","FALSE",15332
"608","Exclusion","37","HM27","neg","neutral","Attitude","unpleasant",2834,2,20,"unpleasant",2149,"TRUE","TRUE",8217
"609","Exclusion","37","HM30","pos","neutral","Memory","unpleasant",14498,3,-16,"dont know",8357,NA,"TRUE",14378
"610","Exclusion","37","HM33","pos","neutral","Memory","pleasant",5195,-4,64,"pleasant",1211,"TRUE","TRUE",22722
"611","Exclusion","37","HM34","neg","neutral","Attitude","unpleasant",11020,4,30,"unpleasant",2445,"TRUE","TRUE",6331
"612","Exclusion","37","HM37","neg","neg","Attitude","pleasant",2609,-70,-89,"unpleasant",773,"TRUE","FALSE",6674
"613","Exclusion","37","HM38","neg","neg","Attitude","pleasant",21217,-70,-66,"dont know",3122,NA,"FALSE",3865
"614","Exclusion","37","HM39","neg","neutral","Memory","unpleasant",1891,-3,-60,"unpleasant",1361,"TRUE","TRUE",20913
"615","Exclusion","37","HM41","neg","neutral","Memory","unpleasant",2574,-4,-73,"unpleasant",807,"TRUE","FALSE",14294
"616","Exclusion","37","HM46","neg","neutral","Memory","unpleasant",3158,5,-31,"unpleasant",789,"TRUE","FALSE",16302
"617","Exclusion","37","HM51","pos","pos","Attitude","unpleasant",6057,70,25,"dont know",2271,NA,"FALSE",8486
"618","Exclusion","37","HM52","pos","neutral","Memory","pleasant",6036,3,50,"pleasant",3092,"TRUE","TRUE",13067
"619","Exclusion","37","HM56","neg","neutral","Memory","pleasant",3742,5,60,"unpleasant",3348,"TRUE","FALSE",14448
"620","Exclusion","37","HM58","pos","pos","Attitude","unpleasant",4501,86,50,"pleasant",1020,"TRUE","FALSE",20430
"621","Exclusion","37","HM59","pos","pos","Attitude","unpleasant",2102,85,83,"pleasant",1470,"TRUE","TRUE",6482
"622","Exclusion","37","HW08","pos","neutral","Memory","pleasant",5131,5,10,"pleasant",2142,"TRUE","FALSE",12421
"623","Exclusion","37","HW10","neg","neutral","Attitude","unpleasant",7154,2,60,"unpleasant",2149,"TRUE","TRUE",9801
"624","Exclusion","37","HW16","neg","neutral","Memory","unpleasant",1943,-5,-77,"unpleasant",823,"TRUE","TRUE",9057
"625","Exclusion","37","HW17","pos","neutral","Memory","pleasant",4931,-1,30,"dont know",2438,NA,"TRUE",14591
"626","Exclusion","37","HW19","neg","neg","Attitude","pleasant",8827,-51,-73,"unpleasant",1158,"TRUE","TRUE",7184
"627","Exclusion","37","HW22","pos","pos","Attitude","unpleasant",2858,90,40,"pleasant",1571,"TRUE","TRUE",7928
"628","Exclusion","37","HW26","neg","neutral","Memory","unpleasant",4251,6,-10,"unpleasant",889,"TRUE","FALSE",11342
"629","Exclusion","37","HW27","neg","neutral","Attitude","pleasant",9422,-2,-16,"unpleasant",2058,"TRUE","FALSE",20502
"630","Exclusion","37","HW31","pos","pos","Attitude","unpleasant",2562,80,65,"pleasant",1348,"TRUE","FALSE",7911
"631","Exclusion","37","HW33","pos","neutral","Memory","pleasant",5161,-5,-30,"pleasant",1226,"TRUE","FALSE",10902
"632","Exclusion","37","HW34","neg","neutral","Memory","unpleasant",4166,5,-15,"unpleasant",2816,"TRUE","TRUE",7612
"633","Exclusion","37","HW40","pos","neutral","Memory","pleasant",3841,4,65,"pleasant",2548,"TRUE","TRUE",7301
"634","Exclusion","37","HW47","pos","neutral","Memory","pleasant",5286,-6,6,"pleasant",1501,"TRUE","FALSE",3766
"635","Exclusion","37","HW54","pos","pos","Attitude","unpleasant",13260,71,50,"pleasant",1260,"TRUE","FALSE",6605
"636","Exclusion","37","HW55","neg","neutral","Memory","pleasant",10981,-4,3,"unpleasant",3590,"TRUE","FALSE",9530
"637","Exclusion","37","HW57","pos","pos","Attitude","unpleasant",6781,85,50,"pleasant",2257,"TRUE","FALSE",21180
"638","Exclusion","37","HW58","pos","neutral","Memory","pleasant",3085,-5,45,"pleasant",1802,"TRUE","TRUE",10736
"639","Exclusion","37","HW59","neg","neg","Attitude","pleasant",4949,-75,-90,"unpleasant",646,"TRUE","TRUE",10477
"640","Exclusion","37","HW60","pos","pos","Attitude","unpleasant",2164,70,40,"pleasant",1670,"TRUE","FALSE",7815
"641","Exclusion","40","HM06","neg","neg","Attitude","pleasant",2570,-66,-58,"unpleasant",848,"TRUE","FALSE",6745
"642","Exclusion","40","HM11","pos","neutral","Memory","pleasant",8462,3,-18,"pleasant",2166,"TRUE","TRUE",3520
"643","Exclusion","40","HM13","neg","neg","Attitude","pleasant",4304,-49,-43,"unpleasant",1653,"TRUE","TRUE",3299
"644","Exclusion","40","HM14","neg","neutral","Memory","unpleasant",2326,0,-7,"unpleasant",1473,"TRUE","FALSE",2976
"645","Exclusion","40","HM17","pos","pos","Attitude","unpleasant",2537,40,-3,"dont know",753,NA,"FALSE",8954
"646","Exclusion","40","HM19","pos","pos","Attitude","unpleasant",3237,52,22,"pleasant",2218,"TRUE","FALSE",4093
"647","Exclusion","40","HM24","neg","neutral","Attitude","unpleasant",2628,6,17,"dont know",1356,NA,"TRUE",5017
"648","Exclusion","40","HM26","pos","neutral","Memory","unpleasant",3648,5,-18,"dont know",3859,NA,"TRUE",15377
"649","Exclusion","40","HM29","pos","neutral","Memory","unpleasant",25579,-5,46,"pleasant",2431,"TRUE","TRUE",18401
"650","Exclusion","40","HM30","neg","neutral","Attitude","unpleasant",5817,-4,-6,"dont know",3517,NA,"TRUE",3786
"651","Exclusion","40","HM35","neg","neg","Attitude","pleasant",2120,-53,-35,"dont know",1376,NA,"TRUE",6453
"652","Exclusion","40","HM36","neg","neutral","Memory","unpleasant",2483,5,18,"unpleasant",1572,"TRUE","FALSE",6099
"653","Exclusion","40","HM37","neg","neutral","Memory","unpleasant",1064,4,-16,"unpleasant",1420,"TRUE","FALSE",19866
"654","Exclusion","40","HM38","pos","neutral","Attitude","unpleasant",2767,0,11,"pleasant",2019,"TRUE","TRUE",6639
"655","Exclusion","40","HM41","pos","pos","Attitude","unpleasant",2637,42,-12,"dont know",869,NA,"FALSE",13099
"656","Exclusion","40","HM43","pos","neutral","Memory","pleasant",2712,3,44,"pleasant",1237,"TRUE","FALSE",4903
"657","Exclusion","40","HM45","pos","neutral","Memory","unpleasant",2860,2,-18,"unpleasant",822,"FALSE","TRUE",9491
"658","Exclusion","40","HM46","neg","neutral","Memory","unpleasant",1349,6,12,"unpleasant",1091,"TRUE","FALSE",4199
"659","Exclusion","40","HM57","neg","neutral","Memory","pleasant",3594,3,-6,"unpleasant",1048,"TRUE","FALSE",3973
"660","Exclusion","40","HM59","pos","pos","Attitude","unpleasant",3534,44,-13,"dont know",3263,NA,"TRUE",7255
"661","Exclusion","40","HW02","neg","neutral","Memory","unpleasant",2366,5,-23,"unpleasant",1644,"TRUE","FALSE",7532
"662","Exclusion","40","HW05","pos","pos","Attitude","pleasant",19435,78,-17,"dont know",1383,NA,"TRUE",10657
"663","Exclusion","40","HW07","pos","neutral","Memory","pleasant",1104,5,46,"pleasant",333,"TRUE","TRUE",1985
"664","Exclusion","40","HW13","pos","pos","Attitude","unpleasant",1403,58,32,"pleasant",609,"TRUE","FALSE",8789
"665","Exclusion","40","HW14","pos","neutral","Memory","pleasant",1308,-5,24,"pleasant",1871,"TRUE","FALSE",10792
"666","Exclusion","40","HW21","neg","neutral","Memory","unpleasant",3680,-2,-29,"unpleasant",1152,"TRUE","FALSE",8673
"667","Exclusion","40","HW24","neg","neutral","Memory","unpleasant",2135,-3,-17,"unpleasant",1037,"TRUE","FALSE",3039
"668","Exclusion","40","HW25","neg","neutral","Attitude","unpleasant",21186,6,27,"pleasant",1138,"FALSE","FALSE",5206
"669","Exclusion","40","HW27","pos","neutral","Attitude","pleasant",7579,-5,-7,"unpleasant",2390,"FALSE","TRUE",12842
"670","Exclusion","40","HW28","neg","neutral","Memory","unpleasant",1116,6,-20,"unpleasant",1437,"TRUE","TRUE",5884
"671","Exclusion","40","HW31","pos","neutral","Memory","pleasant",1856,2,28,"pleasant",636,"TRUE","TRUE",2581
"672","Exclusion","40","HW34","pos","neutral","Memory","pleasant",800,4,65,"pleasant",1021,"TRUE","TRUE",11416
"673","Exclusion","40","HW35","neg","neg","Attitude","pleasant",2871,-36,-78,"unpleasant",3829,"TRUE","FALSE",4036
"674","Exclusion","40","HW36","pos","pos","Attitude","unpleasant",6416,44,20,"pleasant",2345,"TRUE","TRUE",20881
"675","Exclusion","40","HW38","neg","neg","Attitude","pleasant",3089,-29,-22,"unpleasant",2018,"TRUE","FALSE",13817
"676","Exclusion","40","HW39","pos","pos","Attitude","unpleasant",7440,40,-26,"dont know",3984,NA,"TRUE",10943
"677","Exclusion","40","HW41","pos","neutral","Memory","pleasant",5254,6,20,"pleasant",838,"TRUE","FALSE",3601
"678","Exclusion","40","HW42","neg","neg","Attitude","pleasant",5200,-29,-30,"unpleasant",1269,"TRUE","TRUE",3947
"679","Exclusion","40","HW57","neg","neg","Attitude","pleasant",2083,-61,6,"dont know",3682,NA,"FALSE",12954
"680","Exclusion","40","HW60","neg","neg","Attitude","pleasant",3749,-29,-19,"unpleasant",859,"TRUE","FALSE",2416
"681","Exclusion","41","HM01","pos","neutral","Attitude","unpleasant",3748,6,8,"pleasant",8796,"TRUE","FALSE",2519
"682","Exclusion","41","HM03","pos","neutral","Memory","pleasant",5610,5,13,"pleasant",1205,"TRUE","TRUE",8504
"683","Exclusion","41","HM04","neg","neutral","Memory","unpleasant",4636,-5,-19,"unpleasant",1086,"TRUE","TRUE",5404
"684","Exclusion","41","HM05","pos","pos","Attitude","unpleasant",4728,60,25,"dont know",1995,NA,"TRUE",7126
"685","Exclusion","41","HM06","neg","neg","Attitude","pleasant",5167,-48,-33,"dont know",653,NA,"FALSE",2337
"686","Exclusion","41","HM08","neg","neutral","Memory","unpleasant",957,7,-5,"unpleasant",852,"TRUE","FALSE",17351
"687","Exclusion","41","HM10","neg","neutral","Memory","unpleasant",2282,-5,-24,"unpleasant",693,"TRUE","FALSE",3729
"688","Exclusion","41","HM11","neg","neutral","Memory","unpleasant",1695,-3,-11,"unpleasant",805,"TRUE","TRUE",4050
"689","Exclusion","41","HM13","neg","neutral","Memory","unpleasant",771,-2,-12,"unpleasant",890,"TRUE","FALSE",8418
"690","Exclusion","41","HM14","pos","neutral","Memory","unpleasant",1736,3,-5,"dont know",1950,NA,"TRUE",9250
"691","Exclusion","41","HM17","pos","pos","Attitude","unpleasant",1804,50,45,"dont know",759,NA,"FALSE",6835
"692","Exclusion","41","HM19","neg","neg","Attitude","pleasant",10346,-30,-7,"dont know",890,NA,"FALSE",4160
"693","Exclusion","41","HM21","neg","neutral","Memory","unpleasant",1728,6,-45,"unpleasant",939,"TRUE","FALSE",2843
"694","Exclusion","41","HM22","neg","neg","Attitude","pleasant",2536,-40,-16,"dont know",1194,NA,"FALSE",8877
"695","Exclusion","41","HM24","neg","neutral","Attitude","unpleasant",2773,7,20,"dont know",1428,NA,"FALSE",1687
"696","Exclusion","41","HM26","pos","neutral","Memory","pleasant",3033,-2,16,"pleasant",1429,"TRUE","FALSE",7893
"697","Exclusion","41","HM29","neg","neutral","Memory","unpleasant",1659,5,-7,"unpleasant",996,"TRUE","TRUE",5104
"698","Exclusion","41","HM30","neg","neutral","Memory","unpleasant",1508,5,7,"unpleasant",1595,"TRUE","TRUE",8411
"699","Exclusion","41","HM33","neg","neutral","Memory","unpleasant",1562,2,5,"unpleasant",1097,"TRUE","FALSE",8575
"700","Exclusion","41","HM34","neg","neg","Attitude","unpleasant",31554,-25,-8,"dont know",660,NA,"FALSE",3044
"701","Exclusion","41","HM37","neg","neg","Attitude","pleasant",2745,-30,-8,"dont know",585,NA,"TRUE",5344
"702","Exclusion","41","HM45","neg","neg","Attitude","pleasant",9988,-60,-10,"dont know",713,NA,"FALSE",5156
"703","Exclusion","41","HM49","neg","neg","Attitude","pleasant",1750,-45,-20,"dont know",1840,NA,"TRUE",2596
"704","Exclusion","41","HW01","pos","pos","Attitude","unpleasant",2691,55,40,"dont know",551,NA,"TRUE",4066
"705","Exclusion","41","HW02","pos","pos","Attitude","unpleasant",1633,65,57,"dont know",559,NA,"TRUE",2763
"706","Exclusion","41","HW05","pos","pos","Attitude","unpleasant",15463,55,40,"dont know",1066,NA,"FALSE",6897
"707","Exclusion","41","HW06","pos","pos","Attitude","unpleasant",2122,60,48,"dont know",615,NA,"FALSE",4688
"708","Exclusion","41","HW08","pos","neutral","Memory","pleasant",6760,0,5,"pleasant",1807,"TRUE","TRUE",10413
"709","Exclusion","41","HW09","pos","neutral","Memory","pleasant",1601,5,8,"pleasant",1375,"TRUE","TRUE",3577
"710","Exclusion","41","HW10","neg","neutral","Memory","unpleasant",1438,5,7,"unpleasant",774,"TRUE","TRUE",8569
"711","Exclusion","41","HW15","pos","pos","Attitude","unpleasant",1819,51,44,"dont know",530,NA,"FALSE",3505
"712","Exclusion","41","HW16","pos","neutral","Memory","pleasant",5105,-5,-2,"pleasant",2332,"TRUE","FALSE",4532
"713","Exclusion","41","HW24","pos","neutral","Memory","pleasant",1898,5,19,"dont know",6482,NA,"FALSE",2633
"714","Exclusion","41","HW33","pos","neutral","Memory","pleasant",1500,-3,3,"pleasant",965,"TRUE","FALSE",2027
"715","Exclusion","41","HW35","neg","neg","Attitude","pleasant",2568,-30,-11,"dont know",702,NA,"TRUE",8457
"716","Exclusion","41","HW42","pos","neutral","Memory","unpleasant",2727,-5,-10,"dont know",1409,NA,"TRUE",6133
"717","Exclusion","41","HW43","pos","neutral","Memory","unpleasant",1013,7,20,"unpleasant",3492,"FALSE","TRUE",7173
"718","Exclusion","41","HW47","neg","neutral","Memory","unpleasant",1127,0,8,"unpleasant",982,"TRUE","TRUE",12148
"719","Exclusion","41","HW51","pos","neutral","Memory","pleasant",2508,-5,5,"pleasant",1348,"TRUE","TRUE",10957
"720","Exclusion","41","HW60","pos","pos","Attitude","unpleasant",3177,55,29,"dont know",588,NA,"TRUE",7817
"721","Exclusion","42","HM02","neg","neutral","Attitude","unpleasant",7718,-30,-20,"unpleasant",4131,"TRUE","FALSE",16277
"722","Exclusion","42","HM04","neg","neg","Attitude","pleasant",2787,-90,-100,"unpleasant",5683,"TRUE","TRUE",12507
"723","Exclusion","42","HM07","neg","neutral","Memory","unpleasant",1680,20,-100,"unpleasant",1182,"TRUE","FALSE",2637
"724","Exclusion","42","HM08","neg","neutral","Memory","unpleasant",2763,15,-40,"unpleasant",3464,"TRUE","TRUE",6439
"725","Exclusion","42","HM13","neg","neg","Attitude","pleasant",12700,-90,-40,"unpleasant",4328,"TRUE","FALSE",4449
"726","Exclusion","42","HM19","neg","neutral","Memory","pleasant",4664,20,40,"pleasant",2588,"FALSE","FALSE",17409
"727","Exclusion","42","HM21","pos","neutral","Attitude","pleasant",6344,-20,-40,"dont know",2786,NA,"FALSE",4356
"728","Exclusion","42","HM25","pos","pos","Attitude","unpleasant",5606,100,70,"dont know",1838,NA,"TRUE",12805
"729","Exclusion","42","HM33","neg","neutral","Attitude","pleasant",11053,-30,-40,"unpleasant",1176,"TRUE","FALSE",8241
"730","Exclusion","42","HM36","pos","pos","Attitude","unpleasant",2616,100,100,"dont know",1463,NA,"FALSE",12275
"731","Exclusion","42","HM37","neg","neg","Attitude","pleasant",3028,-70,-100,"dont know",1307,NA,"TRUE",5151
"732","Exclusion","42","HM38","neg","neutral","Memory","unpleasant",14033,-30,-40,"dont know",1788,NA,"FALSE",6239
"733","Exclusion","42","HM43","neg","neutral","Memory","unpleasant",1790,10,-30,"unpleasant",1287,"TRUE","TRUE",2338
"734","Exclusion","42","HM45","neg","neg","Attitude","pleasant",3946,-100,-50,"dont know",1684,NA,"FALSE",11127
"735","Exclusion","42","HM49","pos","neutral","Memory","pleasant",1844,-10,-40,"pleasant",1262,"TRUE","TRUE",4077
"736","Exclusion","42","HM54","neg","neutral","Memory","pleasant",9104,30,50,"pleasant",1305,"FALSE","TRUE",15627
"737","Exclusion","42","HM60","neg","neutral","Memory","unpleasant",1276,20,-40,"unpleasant",2125,"TRUE","FALSE",4826
"738","Exclusion","42","HW01","pos","pos","Attitude","unpleasant",4011,100,100,"dont know",1189,NA,"FALSE",465
"739","Exclusion","42","HW03","pos","pos","Attitude","unpleasant",5696,100,70,"pleasant",1702,"TRUE","TRUE",5273
"740","Exclusion","42","HW05","pos","neutral","Memory","unpleasant",8676,-10,-30,"unpleasant",2129,"FALSE","FALSE",6585
"741","Exclusion","42","HW12","pos","neutral","Memory","pleasant",1724,30,100,"pleasant",1247,"TRUE","TRUE",15486
"742","Exclusion","42","HW13","pos","pos","Attitude","unpleasant",2113,100,100,"dont know",359,NA,"FALSE",8987
"743","Exclusion","42","HW14","pos","neutral","Memory","pleasant",3000,20,40,"pleasant",3208,"TRUE","TRUE",5569
"744","Exclusion","42","HW15","pos","pos","Attitude","unpleasant",12071,100,100,"dont know",1508,NA,"TRUE",7092
"745","Exclusion","42","HW16","pos","neutral","Memory","pleasant",1561,-20,30,"pleasant",1831,"TRUE","FALSE",2243
"746","Exclusion","42","HW19","neg","neutral","Memory","unpleasant",1479,-20,-50,"unpleasant",1038,"TRUE","FALSE",11648
"747","Exclusion","42","HW24","neg","neutral","Attitude","pleasant",6902,30,-50,"unpleasant",5148,"TRUE","FALSE",16661
"748","Exclusion","42","HW30","pos","neutral","Memory","unpleasant",3496,10,-50,"unpleasant",2982,"FALSE","TRUE",12977
"749","Exclusion","42","HW33","neg","neg","Attitude","pleasant",3696,-70,-50,"unpleasant",1701,"TRUE","FALSE",9014
"750","Exclusion","42","HW36","pos","pos","Attitude","unpleasant",11204,100,40,"pleasant",1638,"TRUE","TRUE",5667
"751","Exclusion","42","HW37","pos","neutral","Memory","pleasant",2559,25,50,"pleasant",1148,"TRUE","TRUE",4218
"752","Exclusion","42","HW39","neg","neutral","Memory","unpleasant",2579,30,-50,"unpleasant",1291,"TRUE","FALSE",7089
"753","Exclusion","42","HW42","neg","neg","Attitude","pleasant",2670,-60,-60,"dont know",1097,NA,"FALSE",19565
"754","Exclusion","42","HW45","pos","neutral","Memory","pleasant",9192,30,30,"pleasant",6814,"TRUE","FALSE",8351
"755","Exclusion","42","HW46","pos","neutral","Memory","pleasant",9646,10,50,"pleasant",1159,"TRUE","TRUE",5309
"756","Exclusion","42","HW50","neg","neg","Memory","unpleasant",5141,-100,-100,"unpleasant",1320,"TRUE","TRUE",9548
"757","Exclusion","42","HW56","pos","neutral","Memory","pleasant",4188,25,30,"pleasant",1145,"TRUE","TRUE",6211
"758","Exclusion","42","HW57","pos","pos","Attitude","unpleasant",5769,100,100,"unpleasant",3071,"FALSE","TRUE",7280
"759","Exclusion","42","HW58","pos","neutral","Memory","unpleasant",5934,-25,-40,"unpleasant",2409,"FALSE","TRUE",8988
"760","Exclusion","42","HW59","neg","neg","Attitude","pleasant",6402,-75,-100,"dont know",1532,NA,"FALSE",5726
"761","Exclusion","43","HM01","pos","pos","Attitude","unpleasant",4198,50,18,"dont know",1722,NA,"TRUE",6092
"762","Exclusion","43","HM02","pos","neutral","Attitude","pleasant",2954,12,-16,"dont know",951,NA,"TRUE",2459
"763","Exclusion","43","HM03","pos","neutral","Memory","unpleasant",6673,-2,16,"dont know",1498,NA,"FALSE",4552
"764","Exclusion","43","HM04","neg","neg","Attitude","pleasant",1368,-42,-52,"dont know",656,NA,"TRUE",5379
"765","Exclusion","43","HM05","pos","neutral","Memory","unpleasant",3046,8,17,"unpleasant",1644,"FALSE","FALSE",2206
"766","Exclusion","43","HM06","neg","neutral","Attitude","pleasant",1547,0,-43,"dont know",992,NA,"TRUE",3409
"767","Exclusion","43","HM07","pos","neutral","Memory","unpleasant",6622,0,-12,"unpleasant",1468,"FALSE","FALSE",7996
"768","Exclusion","43","HM10","neg","neutral","Memory","unpleasant",4741,0,-14,"dont know",1353,NA,"TRUE",1871
"769","Exclusion","43","HM11","neg","neg","Attitude","pleasant",2597,-35,-42,"dont know",1429,NA,"FALSE",1889
"770","Exclusion","43","HM13","neg","neutral","Attitude","pleasant",2848,8,8,"dont know",1519,NA,"TRUE",3245
"771","Exclusion","43","HM21","neg","neutral","Attitude","pleasant",1351,7,-9,"dont know",940,NA,"FALSE",1921
"772","Exclusion","43","HM22","neg","neutral","Attitude","unpleasant",1519,-6,-40,"dont know",1372,NA,"TRUE",7479
"773","Exclusion","43","HM26","pos","neutral","Attitude","unpleasant",2907,-9,13,"dont know",620,NA,"TRUE",2603
"774","Exclusion","43","HM29","neg","neutral","Memory","pleasant",2665,10,11,"pleasant",1648,"FALSE","TRUE",10039
"775","Exclusion","43","HM33","neg","neutral","Attitude","unpleasant",4605,0,1,"unpleasant",2612,"TRUE","FALSE",3608
"776","Exclusion","43","HM34","neg","neg","Attitude","pleasant",2306,-41,-29,"dont know",571,NA,"TRUE",3900
"777","Exclusion","43","HM35","pos","neutral","Attitude","unpleasant",4135,5,7,"pleasant",1762,"TRUE","TRUE",2850
"778","Exclusion","43","HM37","neg","neg","Attitude","pleasant",1707,-48,-28,"dont know",690,NA,"FALSE",3028
"779","Exclusion","43","HM39","neg","neutral","Memory","unpleasant",3539,8,-4,"unpleasant",1746,"TRUE","FALSE",3785
"780","Exclusion","43","HM41","pos","neutral","Attitude","unpleasant",2098,12,10,"dont know",861,NA,"FALSE",1956
"781","Exclusion","43","HM45","neg","neg","Memory","unpleasant",4511,-41,-20,"unpleasant",3008,"TRUE","FALSE",3339
"782","Exclusion","43","HM47","neg","neutral","Memory","unpleasant",3925,0,22,"pleasant",2216,"FALSE","FALSE",3595
"783","Exclusion","43","HM48","pos","neutral","Attitude","pleasant",6194,12,-5,"dont know",753,NA,"FALSE",1848
"784","Exclusion","43","HM50","pos","pos","Attitude","unpleasant",1435,57,43,"dont know",785,NA,"FALSE",20530
"785","Exclusion","43","HM54","neg","neutral","Attitude","unpleasant",4392,9,7,"dont know",1212,NA,"TRUE",4903
"786","Exclusion","43","HM55","pos","neutral","Attitude","pleasant",3008,0,-24,"dont know",1247,NA,"FALSE",2929
"787","Exclusion","43","HM60","neg","neutral","Attitude","unpleasant",4337,0,35,"dont know",801,NA,"FALSE",5721
"788","Exclusion","43","HW07","pos","pos","Attitude","unpleasant",2734,50,50,"dont know",1303,NA,"FALSE",4169
"789","Exclusion","43","HW12","neg","neg","Memory","unpleasant",4563,-39,33,"dont know",644,NA,"TRUE",3728
"790","Exclusion","43","HW16","pos","pos","Attitude","unpleasant",1920,48,44,"dont know",887,NA,"TRUE",5196
"791","Exclusion","43","HW17","pos","pos","Attitude","unpleasant",4373,51,44,"pleasant",1616,"TRUE","FALSE",6879
"792","Exclusion","43","HW19","pos","pos","Attitude","unpleasant",1508,48,58,"dont know",1140,NA,"TRUE",6811
"793","Exclusion","43","HW24","pos","neutral","Memory","pleasant",3060,-8,16,"pleasant",1259,"TRUE","FALSE",2178
"794","Exclusion","43","HW32","pos","pos","Attitude","unpleasant",2234,44,36,"pleasant",1938,"TRUE","TRUE",5108
"795","Exclusion","43","HW35","neg","neg","Attitude","pleasant",3258,-53,-44,"dont know",1133,NA,"FALSE",8092
"796","Exclusion","43","HW38","neg","neutral","Attitude","unpleasant",4493,12,24,"pleasant",1747,"FALSE","FALSE",5515
"797","Exclusion","43","HW46","pos","pos","Attitude","unpleasant",2051,48,31,"dont know",551,NA,"FALSE",3546
"798","Exclusion","43","HW49","pos","neutral","Attitude","unpleasant",2803,0,20,"dont know",879,NA,"FALSE",2783
"799","Exclusion","43","HW58","pos","neutral","Memory","unpleasant",2631,12,38,"dont know",3934,NA,"FALSE",2427
"800","Exclusion","43","HW59","neg","neg","Attitude","pleasant",2526,-33,-37,"dont know",688,NA,"TRUE",2679
"801","Exclusion","44","HM03","neg","neutral","Attitude","pleasant",2465,3,37,"pleasant",4034,"FALSE","TRUE",2913
"802","Exclusion","44","HM06","pos","pos","Attitude","unpleasant",2150,49,-15,"pleasant",911,"TRUE","FALSE",3220
"803","Exclusion","44","HM16","pos","pos","Attitude","pleasant",4470,61,19,"pleasant",801,"TRUE","FALSE",4613
"804","Exclusion","44","HM19","pos","pos","Attitude","pleasant",1385,45,15,"pleasant",2100,"TRUE","TRUE",6559
"805","Exclusion","44","HM22","neg","neg","Attitude","unpleasant",2266,-20,-40,"unpleasant",714,"TRUE","FALSE",12335
"806","Exclusion","44","HM23","neg","neutral","Attitude","pleasant",10698,-7,28,"pleasant",795,"FALSE","FALSE",8292
"807","Exclusion","44","HM24","neg","neutral","Memory","unpleasant",4230,0,19,"unpleasant",854,"TRUE","FALSE",12202
"808","Exclusion","44","HM25","neg","neg","Attitude","pleasant",1810,-32,24,"unpleasant",732,"TRUE","TRUE",4145
"809","Exclusion","44","HM26","pos","neutral","Memory","unpleasant",3256,2,-20,"pleasant",764,"TRUE","TRUE",5517
"810","Exclusion","44","HM27","pos","neutral","Memory","pleasant",3082,4,19,"pleasant",1906,"TRUE","FALSE",6183
"811","Exclusion","44","HM28","neg","neutral","Memory","unpleasant",1388,6,42,"unpleasant",952,"TRUE","TRUE",4567
"812","Exclusion","44","HM33","pos","pos","Attitude","unpleasant",2863,44,22,"pleasant",1875,"TRUE","FALSE",6703
"813","Exclusion","44","HM34","pos","neutral","Memory","unpleasant",2210,0,-59,"unpleasant",1330,"FALSE","FALSE",14088
"814","Exclusion","44","HM39","pos","neutral","Memory","pleasant",1483,-5,-15,"pleasant",1123,"TRUE","FALSE",2152
"815","Exclusion","44","HM44","pos","pos","Attitude","pleasant",1363,56,55,"unpleasant",1460,"FALSE","TRUE",25279
"816","Exclusion","44","HM45","neg","neutral","Memory","unpleasant",3452,-5,5,"unpleasant",1162,"TRUE","TRUE",12011
"817","Exclusion","44","HM48","pos","pos","Attitude","pleasant",2962,41,30,"unpleasant",1201,"FALSE","TRUE",7830
"818","Exclusion","44","HM54","pos","neutral","Memory","pleasant",5289,3,6,"pleasant",2539,"TRUE","FALSE",3389
"819","Exclusion","44","HM55","pos","neutral","Attitude","pleasant",4383,0,17,"pleasant",950,"TRUE","TRUE",7212
"820","Exclusion","44","HW03","pos","pos","Attitude","pleasant",1789,46,31,"pleasant",998,"TRUE","TRUE",9780
"821","Exclusion","44","HW06","neg","neutral","Attitude","unpleasant",2451,4,4,"pleasant",756,"FALSE","TRUE",3040
"822","Exclusion","44","HW09","neg","neg","Attitude","unpleasant",3125,-18,7,"unpleasant",2526,"TRUE","FALSE",6817
"823","Exclusion","44","HW11","neg","neg","Attitude","unpleasant",9249,-22,0,"unpleasant",878,"TRUE","FALSE",4823
"824","Exclusion","44","HW13","neg","neutral","Memory","pleasant",3520,-7,58,"unpleasant",878,"TRUE","TRUE",8220
"825","Exclusion","44","HW16","pos","pos","Attitude","pleasant",3439,100,100,"pleasant",1162,"TRUE","TRUE",5654
"826","Exclusion","44","HW23","pos","neutral","Memory","pleasant",2252,-6,2,"pleasant",1915,"TRUE","TRUE",10928
"827","Exclusion","44","HW26","neg","neg","Attitude","pleasant",4213,-18,37,"unpleasant",864,"TRUE","TRUE",22437
"828","Exclusion","44","HW30","neg","neutral","Memory","unpleasant",2766,-6,13,"unpleasant",5104,"TRUE","TRUE",2150
"829","Exclusion","44","HW33","pos","neutral","Memory","pleasant",6936,3,-10,"pleasant",1998,"TRUE","TRUE",7143
"830","Exclusion","44","HW35","neg","neg","Attitude","unpleasant",3667,-30,-19,"unpleasant",685,"TRUE","FALSE",2952
"831","Exclusion","44","HW37","pos","neutral","Memory","pleasant",943,0,19,"pleasant",640,"TRUE","TRUE",4994
"832","Exclusion","44","HW43","neg","neg","Attitude","unpleasant",288,-28,-17,"unpleasant",724,"TRUE","TRUE",6395
"833","Exclusion","44","HW45","neg","neutral","Attitude","pleasant",3301,6,11,"unpleasant",1191,"TRUE","TRUE",3120
"834","Exclusion","44","HW49","neg","neutral","Attitude","unpleasant",3015,2,5,"unpleasant",1296,"TRUE","TRUE",4977
"835","Exclusion","44","HW50","neg","neutral","Memory","pleasant",2424,0,-21,"unpleasant",955,"TRUE","TRUE",8264
"836","Exclusion","44","HW52","pos","neutral","Memory","unpleasant",1851,4,15,"pleasant",2757,"TRUE","FALSE",6621
"837","Exclusion","44","HW55","pos","neutral","Memory","unpleasant",1676,-2,-11,"pleasant",1012,"TRUE","FALSE",10543
"838","Exclusion","44","HW57","pos","neutral","Memory","unpleasant",5117,-6,-3,"pleasant",239,"TRUE","TRUE",19521
"839","Exclusion","44","HW58","neg","neutral","Memory","unpleasant",1766,-7,-19,"unpleasant",818,"TRUE","FALSE",9623
"840","Exclusion","44","HW59","neg","neg","Attitude","unpleasant",2068,-33,-19,"unpleasant",783,"TRUE","FALSE",4665
"841","Exclusion","45","HM03","pos","neutral","Memory","pleasant",1833,-10,50,"pleasant",1247,"TRUE","FALSE",4920
"842","Exclusion","45","HM05","pos","pos","Attitude","unpleasant",2558,74,22,"pleasant",700,"TRUE","FALSE",7103
"843","Exclusion","45","HM12","neg","neutral","Memory","unpleasant",2703,10,-70,"unpleasant",2497,"TRUE","TRUE",9908
"844","Exclusion","45","HM13","neg","neutral","Memory","unpleasant",1464,10,-62,"unpleasant",823,"TRUE","TRUE",8248
"845","Exclusion","45","HM18","pos","neutral","Memory","pleasant",1806,10,71,"pleasant",943,"TRUE","TRUE",2981
"846","Exclusion","45","HM23","pos","neutral","Memory","unpleasant",2707,-10,-35,"pleasant",2013,"TRUE","FALSE",6550
"847","Exclusion","45","HM26","pos","neutral","Memory","unpleasant",2427,3,51,"unpleasant",1073,"FALSE","FALSE",1686
"848","Exclusion","45","HM31","neg","neutral","Memory","unpleasant",4645,10,21,"pleasant",1381,"FALSE","TRUE",7804
"849","Exclusion","45","HM35","neg","neutral","Memory","unpleasant",1192,-16,-64,"unpleasant",848,"TRUE","TRUE",4291
"850","Exclusion","45","HM39","neg","neutral","Memory","unpleasant",2225,-16,-44,"unpleasant",983,"TRUE","TRUE",9457
"851","Exclusion","45","HM41","pos","pos","Attitude","unpleasant",2132,66,16,"pleasant",863,"TRUE","FALSE",9798
"852","Exclusion","45","HM42","pos","pos","Attitude","unpleasant",3158,100,21,"pleasant",2996,"TRUE","FALSE",7644
"853","Exclusion","45","HM43","neg","neg","Attitude","pleasant",3250,-100,-100,"unpleasant",747,"TRUE","TRUE",5512
"854","Exclusion","45","HM44","neg","neg","Attitude","pleasant",2401,-100,-88,"unpleasant",863,"TRUE","FALSE",4727
"855","Exclusion","45","HM47","neg","neg","Attitude","pleasant",2632,-89,-83,"unpleasant",1142,"TRUE","TRUE",5515
"856","Exclusion","45","HM52","pos","pos","Attitude","unpleasant",2873,81,16,"dont know",1084,NA,"FALSE",8485
"857","Exclusion","45","HM53","pos","neutral","Memory","pleasant",2274,-10,50,"pleasant",1231,"TRUE","FALSE",2259
"858","Exclusion","45","HM59","pos","pos","Attitude","unpleasant",6093,100,81,"pleasant",1094,"TRUE","FALSE",3913
"859","Exclusion","45","HW02","pos","neutral","Memory","pleasant",1630,11,24,"pleasant",1299,"TRUE","FALSE",1660
"860","Exclusion","45","HW07","pos","neutral","Memory","pleasant",2055,15,39,"pleasant",1416,"TRUE","FALSE",1505
"861","Exclusion","45","HW08","neg","neutral","Attitude","pleasant",1955,-10,-20,"dont know",2367,NA,"TRUE",3876
"862","Exclusion","45","HW10","pos","neutral","Memory","unpleasant",2152,-11,-50,"unpleasant",1092,"FALSE","FALSE",2890
"863","Exclusion","45","HW12","neg","neg","Attitude","pleasant",2057,-88,-81,"unpleasant",699,"TRUE","TRUE",9605
"864","Exclusion","45","HW13","pos","pos","Attitude","unpleasant",2330,98,50,"pleasant",1150,"TRUE","TRUE",2986
"865","Exclusion","45","HW14","neg","neutral","Memory","unpleasant",1760,-16,-20,"unpleasant",724,"TRUE","TRUE",4549
"866","Exclusion","45","HW17","pos","neutral","Memory","pleasant",1465,16,43,"pleasant",1062,"TRUE","FALSE",1810
"867","Exclusion","45","HW20","neg","neutral","Memory","unpleasant",3526,12,-20,"unpleasant",1091,"TRUE","FALSE",2438
"868","Exclusion","45","HW26","pos","neutral","Memory","unpleasant",2270,5,-43,"unpleasant",1257,"FALSE","FALSE",7618
"869","Exclusion","45","HW27","neg","neg","Attitude","pleasant",1820,-91,-100,"unpleasant",941,"TRUE","FALSE",3041
"870","Exclusion","45","HW28","pos","pos","Attitude","unpleasant",3439,72,38,"pleasant",2145,"TRUE","FALSE",4010
"871","Exclusion","45","HW32","pos","pos","Attitude","unpleasant",2835,100,14,"pleasant",842,"TRUE","FALSE",5427
"872","Exclusion","45","HW35","neg","neutral","Memory","unpleasant",1383,15,-63,"unpleasant",705,"TRUE","TRUE",2389
"873","Exclusion","45","HW38","neg","neutral","Memory","unpleasant",1055,-10,-32,"unpleasant",720,"TRUE","TRUE",2521
"874","Exclusion","45","HW41","pos","neutral","Memory","unpleasant",2754,-10,-14,"dont know",1254,NA,"TRUE",9245
"875","Exclusion","45","HW44","neg","neutral","Memory","unpleasant",1133,-7,-22,"dont know",1569,NA,"TRUE",3472
"876","Exclusion","45","HW50","neg","neg","Attitude","pleasant",2230,-90,-77,"unpleasant",832,"TRUE","TRUE",3633
"877","Exclusion","45","HW51","pos","neutral","Memory","unpleasant",2114,11,41,"dont know",1605,NA,"FALSE",5213
